PE UV       SUBTECH     SPECTRUM    ASCII       PEDS        4.00        
   -1
midIR_WSi_2_URA_R.Sample.asc
19/06/28
13:41:27.00
19/06/28
13:41:27.00
Adriana Lita

800.000000
1
Lambda 1050
1050N9050501
PerkinElmer UV WinLab 6.0.4.0738 / 1.61.00 Lambda 900

0
0
3350/20 889.8/5
0
0
UV/VIS
0
1
1
CommonBeamDepol,RBeamAtt,SBeamAtt,universal reflectance
0
0
0
0
Program
Program
3350/20 889.8/5
3350/0.32 889.8/0.2
3350/0.32 889.8/0.2
0
3350/1
 
 
 
0
 
889.8
319.2
889.8
Front
39
on
3350/S:100 3350/R:100
 
0
0
0
 
0
 
 
 
0
 
 
0
0
8.0
5.00
5.00
False
False
202N9070701
 
0
0


0
0
#HDR
-1
-1
#GR
nm
%R
1.0
0.0
2000.000000
-0.500000
2401
8
13.542610
11.051923
#DATA
2000.000000	11.051923
1999.500000	11.072885
1999.000000	11.070740
1998.500000	11.095517
1998.000000	11.064407
1997.500000	11.060999
1997.000000	11.079715
1996.500000	11.090914
1996.000000	11.093420
1995.500000	11.095040
1995.000000	11.113353
1994.500000	11.107232
1994.000000	11.091531
1993.500000	11.099277
1993.000000	11.099807
1992.500000	11.097613
1992.000000	11.085975
1991.500000	11.102366
1991.000000	11.073093
1990.500000	11.090903
1990.000000	11.109376
1989.500000	11.093576
1989.000000	11.119254
1988.500000	11.123845
1988.000000	11.106885
1987.500000	11.077583
1987.000000	11.068792
1986.500000	11.098700
1986.000000	11.101467
1985.500000	11.097152
1985.000000	11.093129
1984.500000	11.090492
1984.000000	11.099739
1983.500000	11.107065
1983.000000	11.104963
1982.500000	11.106081
1982.000000	11.118220
1981.500000	11.104803
1981.000000	11.114915
1980.500000	11.116411
1980.000000	11.107999
1979.500000	11.113652
1979.000000	11.116875
1978.500000	11.112887
1978.000000	11.109968
1977.500000	11.115440
1977.000000	11.102392
1976.500000	11.086426
1976.000000	11.074778
1975.500000	11.108180
1975.000000	11.113373
1974.500000	11.104481
1974.000000	11.097742
1973.500000	11.104311
1973.000000	11.121818
1972.500000	11.115174
1972.000000	11.111488
1971.500000	11.116962
1971.000000	11.106183
1970.500000	11.114239
1970.000000	11.109395
1969.500000	11.118521
1969.000000	11.105952
1968.500000	11.107570
1968.000000	11.076577
1967.500000	11.103929
1967.000000	11.114507
1966.500000	11.123309
1966.000000	11.115445
1965.500000	11.140792
1965.000000	11.114021
1964.500000	11.133618
1964.000000	11.132975
1963.500000	11.130104
1963.000000	11.142490
1962.500000	11.117041
1962.000000	11.116846
1961.500000	11.130251
1961.000000	11.127320
1960.500000	11.112061
1960.000000	11.119516
1959.500000	11.125594
1959.000000	11.098744
1958.500000	11.094416
1958.000000	11.101889
1957.500000	11.137477
1957.000000	11.140190
1956.500000	11.131878
1956.000000	11.138820
1955.500000	11.111440
1955.000000	11.118143
1954.500000	11.116156
1954.000000	11.134716
1953.500000	11.142140
1953.000000	11.154327
1952.500000	11.120290
1952.000000	11.119693
1951.500000	11.133847
1951.000000	11.130251
1950.500000	11.120378
1950.000000	11.118853
1949.500000	11.119267
1949.000000	11.144777
1948.500000	11.133217
1948.000000	11.129719
1947.500000	11.126415
1947.000000	11.127015
1946.500000	11.130043
1946.000000	11.121041
1945.500000	11.125820
1945.000000	11.153650
1944.500000	11.118553
1944.000000	11.141150
1943.500000	11.148372
1943.000000	11.126915
1942.500000	11.160294
1942.000000	11.117080
1941.500000	11.128794
1941.000000	11.134092
1940.500000	11.128415
1940.000000	11.122244
1939.500000	11.144268
1939.000000	11.128524
1938.500000	11.113993
1938.000000	11.131762
1937.500000	11.158070
1937.000000	11.157472
1936.500000	11.145163
1936.000000	11.144433
1935.500000	11.124273
1935.000000	11.118553
1934.500000	11.135439
1934.000000	11.148207
1933.500000	11.152997
1933.000000	11.165166
1932.500000	11.185896
1932.000000	11.156576
1931.500000	11.159728
1931.000000	11.191685
1930.500000	11.169369
1930.000000	11.151673
1929.500000	11.154621
1929.000000	11.130785
1928.500000	11.175437
1928.000000	11.166752
1927.500000	11.156952
1927.000000	11.161749
1926.500000	11.170683
1926.000000	11.149456
1925.500000	11.162369
1925.000000	11.159667
1924.500000	11.147010
1924.000000	11.162698
1923.500000	11.140678
1923.000000	11.166434
1922.500000	11.194901
1922.000000	11.143680
1921.500000	11.179951
1921.000000	11.180232
1920.500000	11.142776
1920.000000	11.167317
1919.500000	11.166590
1919.000000	11.173900
1918.500000	11.185376
1918.000000	11.198314
1917.500000	11.182520
1917.000000	11.163991
1916.500000	11.153978
1916.000000	11.149717
1915.500000	11.170224
1915.000000	11.183819
1914.500000	11.160026
1914.000000	11.177317
1913.500000	11.217594
1913.000000	11.145887
1912.500000	11.139510
1912.000000	11.212774
1911.500000	11.165083
1911.000000	11.224318
1910.500000	11.139998
1910.000000	11.154663
1909.500000	11.177561
1909.000000	11.206834
1908.500000	11.173660
1908.000000	11.198900
1907.500000	11.182301
1907.000000	11.185886
1906.500000	11.184056
1906.000000	11.161250
1905.500000	11.159642
1905.000000	11.173963
1904.500000	11.191218
1904.000000	11.203538
1903.500000	11.179627
1903.000000	11.187017
1902.500000	11.195168
1902.000000	11.184187
1901.500000	11.164930
1901.000000	11.177490
1900.500000	11.211812
1900.000000	11.165609
1899.500000	11.116957
1899.000000	11.177119
1898.500000	11.200924
1898.000000	11.170199
1897.500000	11.173168
1897.000000	11.197872
1896.500000	11.194926
1896.000000	11.215286
1895.500000	11.201880
1895.000000	11.180295
1894.500000	11.184780
1894.000000	11.166706
1893.500000	11.193418
1893.000000	11.185091
1892.500000	11.167018
1892.000000	11.175535
1891.500000	11.174113
1891.000000	11.167956
1890.500000	11.169885
1890.000000	11.198183
1889.500000	11.162604
1889.000000	11.136218
1888.500000	11.177735
1888.000000	11.166775
1887.500000	11.214720
1887.000000	11.169593
1886.500000	11.171371
1886.000000	11.195287
1885.500000	11.196811
1885.000000	11.190400
1884.500000	11.173793
1884.000000	11.180208
1883.500000	11.166452
1883.000000	11.177735
1882.500000	11.196391
1882.000000	11.185224
1881.500000	11.186084
1881.000000	11.203733
1880.500000	11.201863
1880.000000	11.171779
1879.500000	11.199410
1879.000000	11.210668
1878.500000	11.195635
1878.000000	11.206052
1877.500000	11.162257
1877.000000	11.197876
1876.500000	11.212893
1876.000000	11.219583
1875.500000	11.184062
1875.000000	11.196012
1874.500000	11.218774
1874.000000	11.195076
1873.500000	11.197457
1873.000000	11.197092
1872.500000	11.201505
1872.000000	11.228130
1871.500000	11.244183
1871.000000	11.241936
1870.500000	11.217761
1870.000000	11.207752
1869.500000	11.209493
1869.000000	11.192033
1868.500000	11.228252
1868.000000	11.204555
1867.500000	11.183091
1867.000000	11.197176
1866.500000	11.196012
1866.000000	11.214431
1865.500000	11.209680
1865.000000	11.235130
1864.500000	11.215667
1864.000000	11.211043
1863.500000	11.219345
1863.000000	11.238907
1862.500000	11.197061
1862.000000	11.193843
1861.500000	11.215861
1861.000000	11.220107
1860.500000	11.207112
1860.000000	11.207802
1859.500000	11.216571
1859.000000	11.222833
1858.500000	11.216030
1858.000000	11.225162
1857.500000	11.203392
1857.000000	11.215795
1856.500000	11.204886
1856.000000	11.227158
1855.500000	11.224886
1855.000000	11.227094
1854.500000	11.217400
1854.000000	11.223898
1853.500000	11.223457
1853.000000	11.211628
1852.500000	11.211925
1852.000000	11.245489
1851.500000	11.224291
1851.000000	11.223043
1850.500000	11.200517
1850.000000	11.215168
1849.500000	11.225141
1849.000000	11.205548
1848.500000	11.211990
1848.000000	11.219910
1847.500000	11.204918
1847.000000	11.204002
1846.500000	11.220533
1846.000000	11.217512
1845.500000	11.238864
1845.000000	11.252713
1844.500000	11.224856
1844.000000	11.236423
1843.500000	11.240517
1843.000000	11.236393
1842.500000	11.238285
1842.000000	11.230507
1841.500000	11.223184
1841.000000	11.239540
1840.500000	11.229627
1840.000000	11.243574
1839.500000	11.230005
1839.000000	11.246133
1838.500000	11.251127
1838.000000	11.246073
1837.500000	11.254629
1837.000000	11.250574
1836.500000	11.239887
1836.000000	11.228886
1835.500000	11.212225
1835.000000	11.258063
1834.500000	11.255529
1834.000000	11.246548
1833.500000	11.250404
1833.000000	11.264105
1832.500000	11.262920
1832.000000	11.246174
1831.500000	11.244141
1831.000000	11.262233
1830.500000	11.271556
1830.000000	11.267288
1829.500000	11.255071
1829.000000	11.230180
1828.500000	11.228596
1828.000000	11.251475
1827.500000	11.248624
1827.000000	11.243315
1826.500000	11.234152
1826.000000	11.239595
1825.500000	11.252832
1825.000000	11.249444
1824.500000	11.235887
1824.000000	11.240103
1823.500000	11.246637
1823.000000	11.252267
1822.500000	11.254201
1822.000000	11.255347
1821.500000	11.247181
1821.000000	11.255282
1820.500000	11.260849
1820.000000	11.275174
1819.500000	11.271409
1819.000000	11.259913
1818.500000	11.248574
1818.000000	11.266098
1817.500000	11.236896
1817.000000	11.229234
1816.500000	11.254699
1816.000000	11.254756
1815.500000	11.255927
1815.000000	11.253565
1814.500000	11.256957
1814.000000	11.265515
1813.500000	11.276959
1813.000000	11.252967
1812.500000	11.259525
1812.000000	11.266282
1811.500000	11.265912
1811.000000	11.282784
1810.500000	11.239275
1810.000000	11.270252
1809.500000	11.244393
1809.000000	11.268377
1808.500000	11.231109
1808.000000	11.230109
1807.500000	11.259679
1807.000000	11.274586
1806.500000	11.263644
1806.000000	11.258849
1805.500000	11.244576
1805.000000	11.237167
1804.500000	11.254955
1804.000000	11.265339
1803.500000	11.261833
1803.000000	11.243204
1802.500000	11.237791
1802.000000	11.250502
1801.500000	11.259393
1801.000000	11.249957
1800.500000	11.244429
1800.000000	11.245916
1799.500000	11.260042
1799.000000	11.237519
1798.500000	11.262506
1798.000000	11.269826
1797.500000	11.282507
1797.000000	11.278184
1796.500000	11.251488
1796.000000	11.240769
1795.500000	11.237563
1795.000000	11.261724
1794.500000	11.257107
1794.000000	11.257912
1793.500000	11.241453
1793.000000	11.250561
1792.500000	11.266967
1792.000000	11.267262
1791.500000	11.261552
1791.000000	11.248814
1790.500000	11.245218
1790.000000	11.257165
1789.500000	11.260708
1789.000000	11.263304
1788.500000	11.253583
1788.000000	11.248662
1787.500000	11.249332
1787.000000	11.260948
1786.500000	11.270406
1786.000000	11.251884
1785.500000	11.253005
1785.000000	11.268440
1784.500000	11.280569
1784.000000	11.266522
1783.500000	11.256132
1783.000000	11.272354
1782.500000	11.249550
1782.000000	11.249116
1781.500000	11.259639
1781.000000	11.269494
1780.500000	11.271310
1780.000000	11.256990
1779.500000	11.262995
1779.000000	11.272975
1778.500000	11.285769
1778.000000	11.270654
1777.500000	11.269174
1777.000000	11.261307
1776.500000	11.276594
1776.000000	11.275163
1775.500000	11.273574
1775.000000	11.271815
1774.500000	11.278724
1774.000000	11.262833
1773.500000	11.270357
1773.000000	11.275621
1772.500000	11.263499
1772.000000	11.272863
1771.500000	11.278291
1771.000000	11.258185
1770.500000	11.271404
1770.000000	11.275528
1769.500000	11.276816
1769.000000	11.277674
1768.500000	11.285738
1768.000000	11.290533
1767.500000	11.286786
1767.000000	11.299645
1766.500000	11.285678
1766.000000	11.288380
1765.500000	11.295063
1765.000000	11.288313
1764.500000	11.266575
1764.000000	11.269667
1763.500000	11.268486
1763.000000	11.283630
1762.500000	11.297996
1762.000000	11.297182
1761.500000	11.307980
1761.000000	11.296866
1760.500000	11.288668
1760.000000	11.284622
1759.500000	11.296566
1759.000000	11.289901
1758.500000	11.277612
1758.000000	11.287453
1757.500000	11.278732
1757.000000	11.286208
1756.500000	11.289861
1756.000000	11.288196
1755.500000	11.294957
1755.000000	11.300879
1754.500000	11.297037
1754.000000	11.302159
1753.500000	11.284178
1753.000000	11.291628
1752.500000	11.292826
1752.000000	11.284427
1751.500000	11.300597
1751.000000	11.283189
1750.500000	11.283198
1750.000000	11.291969
1749.500000	11.287236
1749.000000	11.293077
1748.500000	11.300837
1748.000000	11.288458
1747.500000	11.287073
1747.000000	11.298444
1746.500000	11.316675
1746.000000	11.294451
1745.500000	11.290943
1745.000000	11.295208
1744.500000	11.280536
1744.000000	11.305604
1743.500000	11.303050
1743.000000	11.302087
1742.500000	11.322237
1742.000000	11.312700
1741.500000	11.309586
1741.000000	11.303234
1740.500000	11.299470
1740.000000	11.307313
1739.500000	11.299958
1739.000000	11.288241
1738.500000	11.292657
1738.000000	11.307420
1737.500000	11.324852
1737.000000	11.316453
1736.500000	11.300478
1736.000000	11.303263
1735.500000	11.315183
1735.000000	11.319151
1734.500000	11.321346
1734.000000	11.324857
1733.500000	11.307196
1733.000000	11.312432
1732.500000	11.315579
1732.000000	11.333468
1731.500000	11.316715
1731.000000	11.316454
1730.500000	11.307884
1730.000000	11.318599
1729.500000	11.317219
1729.000000	11.313783
1728.500000	11.305649
1728.000000	11.310510
1727.500000	11.315453
1727.000000	11.315992
1726.500000	11.314736
1726.000000	11.323318
1725.500000	11.328214
1725.000000	11.325833
1724.500000	11.314412
1724.000000	11.314293
1723.500000	11.340504
1723.000000	11.330619
1722.500000	11.317152
1722.000000	11.318076
1721.500000	11.312040
1721.000000	11.332284
1720.500000	11.330096
1720.000000	11.317222
1719.500000	11.322949
1719.000000	11.313881
1718.500000	11.325430
1718.000000	11.332009
1717.500000	11.334600
1717.000000	11.330322
1716.500000	11.326880
1716.000000	11.320981
1715.500000	11.330249
1715.000000	11.332060
1714.500000	11.322341
1714.000000	11.325839
1713.500000	11.337718
1713.000000	11.353181
1712.500000	11.349302
1712.000000	11.350514
1711.500000	11.333045
1711.000000	11.346666
1710.500000	11.331751
1710.000000	11.329575
1709.500000	11.341056
1709.000000	11.355036
1708.500000	11.345036
1708.000000	11.335074
1707.500000	11.338131
1707.000000	11.340763
1706.500000	11.346309
1706.000000	11.342469
1705.500000	11.339325
1705.000000	11.342139
1704.500000	11.335532
1704.000000	11.343410
1703.500000	11.332971
1703.000000	11.332300
1702.500000	11.340999
1702.000000	11.340344
1701.500000	11.345009
1701.000000	11.329578
1700.500000	11.333852
1700.000000	11.358655
1699.500000	11.358970
1699.000000	11.365828
1698.500000	11.353694
1698.000000	11.371850
1697.500000	11.335798
1697.000000	11.345603
1696.500000	11.366375
1696.000000	11.366252
1695.500000	11.364128
1695.000000	11.360491
1694.500000	11.353785
1694.000000	11.358215
1693.500000	11.361949
1693.000000	11.351660
1692.500000	11.350453
1692.000000	11.351721
1691.500000	11.348803
1691.000000	11.350186
1690.500000	11.357354
1690.000000	11.366448
1689.500000	11.364844
1689.000000	11.352110
1688.500000	11.341756
1688.000000	11.369790
1687.500000	11.369506
1687.000000	11.346666
1686.500000	11.366791
1686.000000	11.357281
1685.500000	11.368012
1685.000000	11.361679
1684.500000	11.364799
1684.000000	11.362264
1683.500000	11.366078
1683.000000	11.357493
1682.500000	11.347131
1682.000000	11.354633
1681.500000	11.366849
1681.000000	11.368704
1680.500000	11.375372
1680.000000	11.372836
1679.500000	11.370780
1679.000000	11.372799
1678.500000	11.378447
1678.000000	11.363442
1677.500000	11.362634
1677.000000	11.381443
1676.500000	11.381207
1676.000000	11.368742
1675.500000	11.382487
1675.000000	11.350699
1674.500000	11.359466
1674.000000	11.368105
1673.500000	11.363150
1673.000000	11.369362
1672.500000	11.379090
1672.000000	11.365705
1671.500000	11.361899
1671.000000	11.382575
1670.500000	11.386208
1670.000000	11.377460
1669.500000	11.365532
1669.000000	11.359939
1668.500000	11.365932
1668.000000	11.384354
1667.500000	11.387480
1667.000000	11.390827
1666.500000	11.383489
1666.000000	11.374732
1665.500000	11.377545
1665.000000	11.374880
1664.500000	11.382336
1664.000000	11.367919
1663.500000	11.373347
1663.000000	11.398911
1662.500000	11.392606
1662.000000	11.386711
1661.500000	11.392801
1661.000000	11.372127
1660.500000	11.377623
1660.000000	11.377265
1659.500000	11.374202
1659.000000	11.377802
1658.500000	11.386879
1658.000000	11.389101
1657.500000	11.376037
1657.000000	11.382918
1656.500000	11.390024
1656.000000	11.396690
1655.500000	11.377196
1655.000000	11.381089
1654.500000	11.375571
1654.000000	11.377241
1653.500000	11.402454
1653.000000	11.388011
1652.500000	11.375837
1652.000000	11.374307
1651.500000	11.388936
1651.000000	11.392744
1650.500000	11.395955
1650.000000	11.399882
1649.500000	11.377778
1649.000000	11.383228
1648.500000	11.404096
1648.000000	11.411469
1647.500000	11.403482
1647.000000	11.395205
1646.500000	11.395492
1646.000000	11.394893
1645.500000	11.398223
1645.000000	11.398436
1644.500000	11.413715
1644.000000	11.399683
1643.500000	11.404588
1643.000000	11.396229
1642.500000	11.378877
1642.000000	11.398986
1641.500000	11.395436
1641.000000	11.409890
1640.500000	11.395113
1640.000000	11.402525
1639.500000	11.410663
1639.000000	11.391978
1638.500000	11.388551
1638.000000	11.399001
1637.500000	11.400013
1637.000000	11.401986
1636.500000	11.409199
1636.000000	11.408728
1635.500000	11.415224
1635.000000	11.417171
1634.500000	11.415304
1634.000000	11.425635
1633.500000	11.423154
1633.000000	11.427554
1632.500000	11.427811
1632.000000	11.423691
1631.500000	11.411096
1631.000000	11.426526
1630.500000	11.427964
1630.000000	11.427496
1629.500000	11.437896
1629.000000	11.421902
1628.500000	11.414315
1628.000000	11.420464
1627.500000	11.429320
1627.000000	11.427905
1626.500000	11.426651
1626.000000	11.432398
1625.500000	11.428991
1625.000000	11.423535
1624.500000	11.426193
1624.000000	11.416187
1623.500000	11.415874
1623.000000	11.418349
1622.500000	11.427658
1622.000000	11.435940
1621.500000	11.423923
1621.000000	11.436595
1620.500000	11.421319
1620.000000	11.434194
1619.500000	11.425794
1619.000000	11.446966
1618.500000	11.429681
1618.000000	11.420768
1617.500000	11.432939
1617.000000	11.426828
1616.500000	11.430537
1616.000000	11.430656
1615.500000	11.423286
1615.000000	11.431688
1614.500000	11.448594
1614.000000	11.448759
1613.500000	11.447003
1613.000000	11.445365
1612.500000	11.448512
1612.000000	11.439286
1611.500000	11.430852
1611.000000	11.445967
1610.500000	11.449116
1610.000000	11.444551
1609.500000	11.437579
1609.000000	11.441317
1608.500000	11.447675
1608.000000	11.444016
1607.500000	11.443671
1607.000000	11.445045
1606.500000	11.438713
1606.000000	11.439770
1605.500000	11.443987
1605.000000	11.438275
1604.500000	11.440771
1604.000000	11.444229
1603.500000	11.454414
1603.000000	11.456609
1602.500000	11.444361
1602.000000	11.446072
1601.500000	11.454032
1601.000000	11.460645
1600.500000	11.443971
1600.000000	11.448773
1599.500000	11.457862
1599.000000	11.455747
1598.500000	11.444165
1598.000000	11.455412
1597.500000	11.443120
1597.000000	11.444426
1596.500000	11.458319
1596.000000	11.456026
1595.500000	11.460180
1595.000000	11.444269
1594.500000	11.454337
1594.000000	11.447835
1593.500000	11.460875
1593.000000	11.459682
1592.500000	11.458010
1592.000000	11.458354
1591.500000	11.456556
1591.000000	11.458006
1590.500000	11.455717
1590.000000	11.460081
1589.500000	11.462923
1589.000000	11.459043
1588.500000	11.459460
1588.000000	11.465881
1587.500000	11.456029
1587.000000	11.474615
1586.500000	11.472316
1586.000000	11.476213
1585.500000	11.459886
1585.000000	11.450336
1584.500000	11.469059
1584.000000	11.466985
1583.500000	11.469828
1583.000000	11.464055
1582.500000	11.467887
1582.000000	11.459237
1581.500000	11.471223
1581.000000	11.475365
1580.500000	11.482809
1580.000000	11.473833
1579.500000	11.464186
1579.000000	11.465188
1578.500000	11.463290
1578.000000	11.471872
1577.500000	11.471256
1577.000000	11.472208
1576.500000	11.482470
1576.000000	11.475212
1575.500000	11.479805
1575.000000	11.467904
1574.500000	11.465051
1574.000000	11.486169
1573.500000	11.476290
1573.000000	11.489262
1572.500000	11.477183
1572.000000	11.475157
1571.500000	11.481827
1571.000000	11.485257
1570.500000	11.490326
1570.000000	11.492111
1569.500000	11.479328
1569.000000	11.469808
1568.500000	11.475691
1568.000000	11.481626
1567.500000	11.486355
1567.000000	11.489171
1566.500000	11.495843
1566.000000	11.501317
1565.500000	11.482731
1565.000000	11.503187
1564.500000	11.496542
1564.000000	11.487645
1563.500000	11.488947
1563.000000	11.486933
1562.500000	11.485386
1562.000000	11.506220
1561.500000	11.504014
1561.000000	11.492092
1560.500000	11.490384
1560.000000	11.493243
1559.500000	11.497045
1559.000000	11.494688
1558.500000	11.504003
1558.000000	11.495696
1557.500000	11.500066
1557.000000	11.506593
1556.500000	11.500727
1556.000000	11.507305
1555.500000	11.510642
1555.000000	11.515832
1554.500000	11.504650
1554.000000	11.493037
1553.500000	11.504287
1553.000000	11.513844
1552.500000	11.513396
1552.000000	11.509674
1551.500000	11.513794
1551.000000	11.506174
1550.500000	11.501289
1550.000000	11.500930
1549.500000	11.505066
1549.000000	11.505694
1548.500000	11.511956
1548.000000	11.519980
1547.500000	11.517483
1547.000000	11.508618
1546.500000	11.520713
1546.000000	11.525018
1545.500000	11.510039
1545.000000	11.512414
1544.500000	11.512525
1544.000000	11.514910
1543.500000	11.508899
1543.000000	11.525296
1542.500000	11.515756
1542.000000	11.527384
1541.500000	11.532429
1541.000000	11.511501
1540.500000	11.527964
1540.000000	11.521238
1539.500000	11.520609
1539.000000	11.513050
1538.500000	11.523824
1538.000000	11.532791
1537.500000	11.530508
1537.000000	11.528342
1536.500000	11.521391
1536.000000	11.520103
1535.500000	11.524252
1535.000000	11.525405
1534.500000	11.524537
1534.000000	11.519610
1533.500000	11.521353
1533.000000	11.530971
1532.500000	11.535901
1532.000000	11.532097
1531.500000	11.540388
1531.000000	11.541048
1530.500000	11.535522
1530.000000	11.547603
1529.500000	11.531943
1529.000000	11.529328
1528.500000	11.526496
1528.000000	11.533356
1527.500000	11.537872
1527.000000	11.532632
1526.500000	11.536609
1526.000000	11.538104
1525.500000	11.540138
1525.000000	11.536895
1524.500000	11.540599
1524.000000	11.542030
1523.500000	11.539868
1523.000000	11.535800
1522.500000	11.545188
1522.000000	11.546250
1521.500000	11.538971
1521.000000	11.536354
1520.500000	11.534511
1520.000000	11.535612
1519.500000	11.551536
1519.000000	11.554083
1518.500000	11.552543
1518.000000	11.554686
1517.500000	11.543868
1517.000000	11.548721
1516.500000	11.547754
1516.000000	11.546164
1515.500000	11.552353
1515.000000	11.550859
1514.500000	11.549446
1514.000000	11.546950
1513.500000	11.556845
1513.000000	11.563738
1512.500000	11.557551
1512.000000	11.558051
1511.500000	11.544860
1511.000000	11.543669
1510.500000	11.551083
1510.000000	11.561427
1509.500000	11.559898
1509.000000	11.547661
1508.500000	11.548974
1508.000000	11.552669
1507.500000	11.569291
1507.000000	11.562084
1506.500000	11.560424
1506.000000	11.560821
1505.500000	11.556233
1505.000000	11.550327
1504.500000	11.558186
1504.000000	11.557987
1503.500000	11.559010
1503.000000	11.567779
1502.500000	11.577196
1502.000000	11.568684
1501.500000	11.564846
1501.000000	11.567095
1500.500000	11.568237
1500.000000	11.570415
1499.500000	11.560647
1499.000000	11.566522
1498.500000	11.569570
1498.000000	11.566349
1497.500000	11.577153
1497.000000	11.568891
1496.500000	11.574938
1496.000000	11.577659
1495.500000	11.560805
1495.000000	11.572845
1494.500000	11.580015
1494.000000	11.580093
1493.500000	11.566644
1493.000000	11.569294
1492.500000	11.569251
1492.000000	11.579024
1491.500000	11.580626
1491.000000	11.581218
1490.500000	11.579469
1490.000000	11.583124
1489.500000	11.589548
1489.000000	11.586677
1488.500000	11.585926
1488.000000	11.582819
1487.500000	11.576455
1487.000000	11.576149
1486.500000	11.575417
1486.000000	11.587092
1485.500000	11.595810
1485.000000	11.577681
1484.500000	11.586258
1484.000000	11.580731
1483.500000	11.584663
1483.000000	11.584235
1482.500000	11.585286
1482.000000	11.597395
1481.500000	11.596703
1481.000000	11.590056
1480.500000	11.589162
1480.000000	11.594665
1479.500000	11.600608
1479.000000	11.596244
1478.500000	11.596394
1478.000000	11.603298
1477.500000	11.594204
1477.000000	11.592202
1476.500000	11.600364
1476.000000	11.606860
1475.500000	11.603678
1475.000000	11.606573
1474.500000	11.602609
1474.000000	11.608291
1473.500000	11.598478
1473.000000	11.613258
1472.500000	11.599723
1472.000000	11.615233
1471.500000	11.612336
1471.000000	11.608466
1470.500000	11.610895
1470.000000	11.613264
1469.500000	11.615043
1469.000000	11.614311
1468.500000	11.608206
1468.000000	11.617017
1467.500000	11.623149
1467.000000	11.615043
1466.500000	11.624093
1466.000000	11.620468
1465.500000	11.622335
1465.000000	11.623950
1464.500000	11.622086
1464.000000	11.619988
1463.500000	11.623285
1463.000000	11.614504
1462.500000	11.623275
1462.000000	11.620357
1461.500000	11.623259
1461.000000	11.628103
1460.500000	11.629572
1460.000000	11.623726
1459.500000	11.622387
1459.000000	11.629840
1458.500000	11.627355
1458.000000	11.624360
1457.500000	11.624717
1457.000000	11.627241
1456.500000	11.629999
1456.000000	11.630068
1455.500000	11.631441
1455.000000	11.634618
1454.500000	11.637757
1454.000000	11.634350
1453.500000	11.642725
1453.000000	11.634121
1452.500000	11.634377
1452.000000	11.636192
1451.500000	11.646289
1451.000000	11.640241
1450.500000	11.637522
1450.000000	11.639979
1449.500000	11.636892
1449.000000	11.639909
1448.500000	11.645895
1448.000000	11.634512
1447.500000	11.635108
1447.000000	11.643131
1446.500000	11.644902
1446.000000	11.642684
1445.500000	11.642573
1445.000000	11.646201
1444.500000	11.653480
1444.000000	11.650116
1443.500000	11.648865
1443.000000	11.651541
1442.500000	11.648802
1442.000000	11.649124
1441.500000	11.643884
1441.000000	11.652712
1440.500000	11.648840
1440.000000	11.657014
1439.500000	11.657361
1439.000000	11.651538
1438.500000	11.645812
1438.000000	11.655626
1437.500000	11.653696
1437.000000	11.655488
1436.500000	11.659780
1436.000000	11.659568
1435.500000	11.660552
1435.000000	11.660853
1434.500000	11.655079
1434.000000	11.656240
1433.500000	11.661845
1433.000000	11.661195
1432.500000	11.656384
1432.000000	11.658354
1431.500000	11.664942
1431.000000	11.658969
1430.500000	11.663692
1430.000000	11.660338
1429.500000	11.670674
1429.000000	11.671323
1428.500000	11.672367
1428.000000	11.679426
1427.500000	11.674343
1427.000000	11.667023
1426.500000	11.667561
1426.000000	11.664908
1425.500000	11.667403
1425.000000	11.672813
1424.500000	11.673682
1424.000000	11.672388
1423.500000	11.669038
1423.000000	11.665882
1422.500000	11.672460
1422.000000	11.674619
1421.500000	11.683123
1421.000000	11.685897
1420.500000	11.686882
1420.000000	11.686413
1419.500000	11.683424
1419.000000	11.674701
1418.500000	11.680866
1418.000000	11.686299
1417.500000	11.670719
1417.000000	11.686086
1416.500000	11.682655
1416.000000	11.679254
1415.500000	11.682652
1415.000000	11.682926
1414.500000	11.684090
1414.000000	11.686543
1413.500000	11.697304
1413.000000	11.687983
1412.500000	11.679204
1412.000000	11.674320
1411.500000	11.684158
1411.000000	11.695216
1410.500000	11.688519
1410.000000	11.688788
1409.500000	11.695730
1409.000000	11.692190
1408.500000	11.696153
1408.000000	11.694908
1407.500000	11.699955
1407.000000	11.699676
1406.500000	11.699325
1406.000000	11.698127
1405.500000	11.703340
1405.000000	11.705886
1404.500000	11.706151
1404.000000	11.699872
1403.500000	11.698438
1403.000000	11.697647
1402.500000	11.709400
1402.000000	11.705900
1401.500000	11.708221
1401.000000	11.713908
1400.500000	11.713694
1400.000000	11.710523
1399.500000	11.711696
1399.000000	11.711931
1398.500000	11.707905
1398.000000	11.709116
1397.500000	11.710073
1397.000000	11.709036
1396.500000	11.714271
1396.000000	11.712954
1395.500000	11.720939
1395.000000	11.720288
1394.500000	11.714379
1394.000000	11.726774
1393.500000	11.724748
1393.000000	11.731907
1392.500000	11.724523
1392.000000	11.722303
1391.500000	11.735670
1391.000000	11.729948
1390.500000	11.719689
1390.000000	11.717364
1389.500000	11.727720
1389.000000	11.728817
1388.500000	11.726318
1388.000000	11.731378
1387.500000	11.733752
1387.000000	11.730296
1386.500000	11.732547
1386.000000	11.734279
1385.500000	11.743102
1385.000000	11.739092
1384.500000	11.744599
1384.000000	11.740022
1383.500000	11.737169
1383.000000	11.738064
1382.500000	11.737123
1382.000000	11.741435
1381.500000	11.744666
1381.000000	11.743742
1380.500000	11.740301
1380.000000	11.741526
1379.500000	11.747513
1379.000000	11.753977
1378.500000	11.753469
1378.000000	11.745241
1377.500000	11.740220
1377.000000	11.741774
1376.500000	11.748129
1376.000000	11.755593
1375.500000	11.749811
1375.000000	11.747057
1374.500000	11.746229
1374.000000	11.754823
1373.500000	11.767145
1373.000000	11.745244
1372.500000	11.745630
1372.000000	11.758689
1371.500000	11.745869
1371.000000	11.746654
1370.500000	11.754748
1370.000000	11.751842
1369.500000	11.749221
1369.000000	11.748725
1368.500000	11.753041
1368.000000	11.761853
1367.500000	11.762467
1367.000000	11.754596
1366.500000	11.757619
1366.000000	11.764139
1365.500000	11.758970
1365.000000	11.763747
1364.500000	11.764232
1364.000000	11.766928
1363.500000	11.762168
1363.000000	11.767045
1362.500000	11.784309
1362.000000	11.771277
1361.500000	11.775501
1361.000000	11.762783
1360.500000	11.761696
1360.000000	11.769631
1359.500000	11.777340
1359.000000	11.770038
1358.500000	11.769120
1358.000000	11.781592
1357.500000	11.782953
1357.000000	11.783707
1356.500000	11.787422
1356.000000	11.786327
1355.500000	11.780702
1355.000000	11.779164
1354.500000	11.784758
1354.000000	11.786018
1353.500000	11.784834
1353.000000	11.786867
1352.500000	11.785689
1352.000000	11.791726
1351.500000	11.790378
1351.000000	11.791053
1350.500000	11.797399
1350.000000	11.793220
1349.500000	11.802192
1349.000000	11.794776
1348.500000	11.788619
1348.000000	11.803493
1347.500000	11.799822
1347.000000	11.797791
1346.500000	11.799302
1346.000000	11.796492
1345.500000	11.799605
1345.000000	11.799570
1344.500000	11.801755
1344.000000	11.803925
1343.500000	11.807338
1343.000000	11.809210
1342.500000	11.801301
1342.000000	11.805860
1341.500000	11.807592
1341.000000	11.811696
1340.500000	11.806011
1340.000000	11.808681
1339.500000	11.809545
1339.000000	11.812890
1338.500000	11.815054
1338.000000	11.813138
1337.500000	11.811321
1337.000000	11.817102
1336.500000	11.821478
1336.000000	11.819926
1335.500000	11.821068
1335.000000	11.827634
1334.500000	11.825553
1334.000000	11.821940
1333.500000	11.822638
1333.000000	11.827184
1332.500000	11.828694
1332.000000	11.833842
1331.500000	11.833815
1331.000000	11.840079
1330.500000	11.843106
1330.000000	11.844401
1329.500000	11.841110
1329.000000	11.836024
1328.500000	11.836933
1328.000000	11.837881
1327.500000	11.841357
1327.000000	11.831615
1326.500000	11.832221
1326.000000	11.834914
1325.500000	11.836929
1325.000000	11.840204
1324.500000	11.842665
1324.000000	11.839956
1323.500000	11.842215
1323.000000	11.847477
1322.500000	11.848472
1322.000000	11.849323
1321.500000	11.843855
1321.000000	11.844095
1320.500000	11.850738
1320.000000	11.858466
1319.500000	11.857097
1319.000000	11.862877
1318.500000	11.861344
1318.000000	11.864307
1317.500000	11.853088
1317.000000	11.856815
1316.500000	11.855451
1316.000000	11.856028
1315.500000	11.872077
1315.000000	11.862290
1314.500000	11.861259
1314.000000	11.858765
1313.500000	11.867598
1313.000000	11.869187
1312.500000	11.864278
1312.000000	11.865421
1311.500000	11.869555
1311.000000	11.875059
1310.500000	11.875141
1310.000000	11.875222
1309.500000	11.879897
1309.000000	11.877260
1308.500000	11.876408
1308.000000	11.885554
1307.500000	11.880199
1307.000000	11.872833
1306.500000	11.877020
1306.000000	11.881146
1305.500000	11.890195
1305.000000	11.885479
1304.500000	11.888896
1304.000000	11.890776
1303.500000	11.890312
1303.000000	11.888860
1302.500000	11.886924
1302.000000	11.890097
1301.500000	11.886785
1301.000000	11.888992
1300.500000	11.893726
1300.000000	11.893686
1299.500000	11.890899
1299.000000	11.894201
1298.500000	11.891465
1298.000000	11.889655
1297.500000	11.893196
1297.000000	11.892802
1296.500000	11.899870
1296.000000	11.907423
1295.500000	11.902115
1295.000000	11.889196
1294.500000	11.898095
1294.000000	11.894811
1293.500000	11.899559
1293.000000	11.899474
1292.500000	11.899076
1292.000000	11.900821
1291.500000	11.905945
1291.000000	11.900836
1290.500000	11.902824
1290.000000	11.903936
1289.500000	11.909458
1289.000000	11.911064
1288.500000	11.910577
1288.000000	11.912901
1287.500000	11.912508
1287.000000	11.910532
1286.500000	11.911140
1286.000000	11.908318
1285.500000	11.911938
1285.000000	11.913307
1284.500000	11.912347
1284.000000	11.920642
1283.500000	11.922165
1283.000000	11.910637
1282.500000	11.917494
1282.000000	11.916113
1281.500000	11.915979
1281.000000	11.918056
1280.500000	11.918767
1280.000000	11.920389
1279.500000	11.924315
1279.000000	11.926058
1278.500000	11.927685
1278.000000	11.925240
1277.500000	11.928121
1277.000000	11.934171
1276.500000	11.933318
1276.000000	11.936403
1275.500000	11.932249
1275.000000	11.934275
1274.500000	11.933918
1274.000000	11.936222
1273.500000	11.934974
1273.000000	11.947839
1272.500000	11.950193
1272.000000	11.940113
1271.500000	11.940368
1271.000000	11.940522
1270.500000	11.943304
1270.000000	11.952881
1269.500000	11.950359
1269.000000	11.945125
1268.500000	11.939463
1268.000000	11.941346
1267.500000	11.948653
1267.000000	11.952508
1266.500000	11.954181
1266.000000	11.954756
1265.500000	11.957857
1265.000000	11.957653
1264.500000	11.955770
1264.000000	11.961357
1263.500000	11.965317
1263.000000	11.964782
1262.500000	11.968848
1262.000000	11.963572
1261.500000	11.961303
1261.000000	11.970316
1260.500000	11.965989
1260.000000	11.973474
1259.500000	11.971071
1259.000000	11.972151
1258.500000	11.971905
1258.000000	11.965396
1257.500000	11.967982
1257.000000	11.969598
1256.500000	11.970886
1256.000000	11.975878
1255.500000	11.973109
1255.000000	11.973589
1254.500000	11.978147
1254.000000	11.978616
1253.500000	11.979200
1253.000000	11.978913
1252.500000	11.981313
1252.000000	11.977819
1251.500000	11.977344
1251.000000	11.977584
1250.500000	11.976408
1250.000000	11.976723
1249.500000	11.979725
1249.000000	11.988108
1248.500000	11.987263
1248.000000	11.975657
1247.500000	11.980378
1247.000000	11.983183
1246.500000	11.985287
1246.000000	11.985464
1245.500000	11.988239
1245.000000	11.989436
1244.500000	11.987955
1244.000000	11.982330
1243.500000	11.983606
1243.000000	11.988885
1242.500000	11.992242
1242.000000	11.993840
1241.500000	11.999243
1241.000000	12.005080
1240.500000	11.996341
1240.000000	12.002184
1239.500000	11.990452
1239.000000	12.000020
1238.500000	11.987673
1238.000000	11.995482
1237.500000	11.995897
1237.000000	11.996466
1236.500000	12.003062
1236.000000	12.005670
1235.500000	12.001892
1235.000000	12.000633
1234.500000	12.000839
1234.000000	12.003227
1233.500000	12.006825
1233.000000	12.009434
1232.500000	12.006938
1232.000000	12.007423
1231.500000	12.014961
1231.000000	12.010698
1230.500000	12.007627
1230.000000	12.010439
1229.500000	12.012687
1229.000000	12.016386
1228.500000	12.017733
1228.000000	12.018721
1227.500000	12.015566
1227.000000	12.030341
1226.500000	12.026416
1226.000000	12.023473
1225.500000	12.024729
1225.000000	12.029355
1224.500000	12.026824
1224.000000	12.026769
1223.500000	12.029716
1223.000000	12.028429
1222.500000	12.028527
1222.000000	12.031613
1221.500000	12.034839
1221.000000	12.035074
1220.500000	12.034622
1220.000000	12.037055
1219.500000	12.037024
1219.000000	12.046030
1218.500000	12.045468
1218.000000	12.047166
1217.500000	12.044411
1217.000000	12.046413
1216.500000	12.048365
1216.000000	12.049360
1215.500000	12.047784
1215.000000	12.055375
1214.500000	12.055622
1214.000000	12.055206
1213.500000	12.060866
1213.000000	12.060982
1212.500000	12.065228
1212.000000	12.064890
1211.500000	12.067397
1211.000000	12.070045
1210.500000	12.069398
1210.000000	12.069484
1209.500000	12.070353
1209.000000	12.069765
1208.500000	12.067405
1208.000000	12.073234
1207.500000	12.072790
1207.000000	12.073741
1206.500000	12.082515
1206.000000	12.083966
1205.500000	12.082009
1205.000000	12.083962
1204.500000	12.081207
1204.000000	12.078495
1203.500000	12.079484
1203.000000	12.082783
1202.500000	12.086936
1202.000000	12.092056
1201.500000	12.085165
1201.000000	12.082303
1200.500000	12.088221
1200.000000	12.088351
1199.500000	12.091829
1199.000000	12.092206
1198.500000	12.092277
1198.000000	12.092165
1197.500000	12.090164
1197.000000	12.089605
1196.500000	12.097252
1196.000000	12.098641
1195.500000	12.099948
1195.000000	12.098077
1194.500000	12.098058
1194.000000	12.102184
1193.500000	12.100513
1193.000000	12.096685
1192.500000	12.101851
1192.000000	12.107377
1191.500000	12.107719
1191.000000	12.100925
1190.500000	12.108128
1190.000000	12.109536
1189.500000	12.113398
1189.000000	12.109962
1188.500000	12.111514
1188.000000	12.115286
1187.500000	12.117277
1187.000000	12.112565
1186.500000	12.113357
1186.000000	12.117642
1185.500000	12.117632
1185.000000	12.118902
1184.500000	12.116333
1184.000000	12.123316
1183.500000	12.113542
1183.000000	12.119785
1182.500000	12.134609
1182.000000	12.133431
1181.500000	12.124323
1181.000000	12.123406
1180.500000	12.126435
1180.000000	12.133637
1179.500000	12.127658
1179.000000	12.133509
1178.500000	12.130182
1178.000000	12.135352
1177.500000	12.137853
1177.000000	12.137142
1176.500000	12.139812
1176.000000	12.141275
1175.500000	12.142981
1175.000000	12.139800
1174.500000	12.145901
1174.000000	12.143800
1173.500000	12.144806
1173.000000	12.146378
1172.500000	12.150123
1172.000000	12.152672
1171.500000	12.157803
1171.000000	12.149933
1170.500000	12.153301
1170.000000	12.154583
1169.500000	12.150219
1169.000000	12.152397
1168.500000	12.155610
1168.000000	12.151576
1167.500000	12.152921
1167.000000	12.156774
1166.500000	12.165458
1166.000000	12.167461
1165.500000	12.165066
1165.000000	12.160462
1164.500000	12.160577
1164.000000	12.162310
1163.500000	12.163505
1163.000000	12.158785
1162.500000	12.164484
1162.000000	12.171897
1161.500000	12.168652
1161.000000	12.166849
1160.500000	12.172033
1160.000000	12.170502
1159.500000	12.171554
1159.000000	12.176540
1158.500000	12.174755
1158.000000	12.175749
1157.500000	12.184894
1157.000000	12.186540
1156.500000	12.188095
1156.000000	12.181457
1155.500000	12.176762
1155.000000	12.176596
1154.500000	12.181229
1154.000000	12.181815
1153.500000	12.183011
1153.000000	12.184424
1152.500000	12.186438
1152.000000	12.190817
1151.500000	12.191315
1151.000000	12.195696
1150.500000	12.196182
1150.000000	12.199487
1149.500000	12.203504
1149.000000	12.197151
1148.500000	12.196106
1148.000000	12.197556
1147.500000	12.203071
1147.000000	12.199795
1146.500000	12.201985
1146.000000	12.205168
1145.500000	12.203673
1145.000000	12.209531
1144.500000	12.205937
1144.000000	12.198522
1143.500000	12.203187
1143.000000	12.208092
1142.500000	12.206864
1142.000000	12.212974
1141.500000	12.218002
1141.000000	12.216506
1140.500000	12.213769
1140.000000	12.216673
1139.500000	12.222788
1139.000000	12.209890
1138.500000	12.216556
1138.000000	12.216471
1137.500000	12.223277
1137.000000	12.218235
1136.500000	12.222641
1136.000000	12.226520
1135.500000	12.221112
1135.000000	12.226423
1134.500000	12.228606
1134.000000	12.234648
1133.500000	12.233337
1133.000000	12.228703
1132.500000	12.231529
1132.000000	12.234793
1131.500000	12.238498
1131.000000	12.239569
1130.500000	12.244790
1130.000000	12.240304
1129.500000	12.240337
1129.000000	12.240977
1128.500000	12.247819
1128.000000	12.241606
1127.500000	12.243915
1127.000000	12.242306
1126.500000	12.242940
1126.000000	12.254744
1125.500000	12.260319
1125.000000	12.257625
1124.500000	12.252344
1124.000000	12.255398
1123.500000	12.260585
1123.000000	12.255243
1122.500000	12.251703
1122.000000	12.252156
1121.500000	12.260934
1121.000000	12.262918
1120.500000	12.261493
1120.000000	12.264449
1119.500000	12.260150
1119.000000	12.257312
1118.500000	12.272945
1118.000000	12.270459
1117.500000	12.270653
1117.000000	12.268909
1116.500000	12.270875
1116.000000	12.279866
1115.500000	12.276969
1115.000000	12.285245
1114.500000	12.281679
1114.000000	12.272564
1113.500000	12.279109
1113.000000	12.272392
1112.500000	12.277200
1112.000000	12.277665
1111.500000	12.283485
1111.000000	12.285584
1110.500000	12.286927
1110.000000	12.293917
1109.500000	12.291304
1109.000000	12.293254
1108.500000	12.289004
1108.000000	12.290327
1107.500000	12.288967
1107.000000	12.292484
1106.500000	12.302121
1106.000000	12.288590
1105.500000	12.299579
1105.000000	12.300121
1104.500000	12.301713
1104.000000	12.298341
1103.500000	12.302744
1103.000000	12.301866
1102.500000	12.309970
1102.000000	12.304769
1101.500000	12.306189
1101.000000	12.305065
1100.500000	12.311690
1100.000000	12.309456
1099.500000	12.314656
1099.000000	12.315134
1098.500000	12.314109
1098.000000	12.313685
1097.500000	12.314870
1097.000000	12.317072
1096.500000	12.325622
1096.000000	12.337573
1095.500000	12.335783
1095.000000	12.339017
1094.500000	12.338885
1094.000000	12.350301
1093.500000	12.337989
1093.000000	12.338395
1092.500000	12.336509
1092.000000	12.339981
1091.500000	12.342446
1091.000000	12.341290
1090.500000	12.334468
1090.000000	12.338078
1089.500000	12.341185
1089.000000	12.345116
1088.500000	12.353007
1088.000000	12.356312
1087.500000	12.346347
1087.000000	12.348213
1086.500000	12.350909
1086.000000	12.359078
1085.500000	12.360094
1085.000000	12.360774
1084.500000	12.363334
1084.000000	12.364695
1083.500000	12.368344
1083.000000	12.364383
1082.500000	12.363734
1082.000000	12.358482
1081.500000	12.367158
1081.000000	12.378738
1080.500000	12.376089
1080.000000	12.376338
1079.500000	12.381212
1079.000000	12.377737
1078.500000	12.380074
1078.000000	12.380769
1077.500000	12.378990
1077.000000	12.373253
1076.500000	12.373788
1076.000000	12.382722
1075.500000	12.385214
1075.000000	12.385111
1074.500000	12.386355
1074.000000	12.386036
1073.500000	12.387601
1073.000000	12.390550
1072.500000	12.399962
1072.000000	12.387089
1071.500000	12.394306
1071.000000	12.398244
1070.500000	12.403069
1070.000000	12.398759
1069.500000	12.394585
1069.000000	12.396058
1068.500000	12.393154
1068.000000	12.402603
1067.500000	12.401037
1067.000000	12.411450
1066.500000	12.407721
1066.000000	12.403627
1065.500000	12.410186
1065.000000	12.404651
1064.500000	12.408113
1064.000000	12.412499
1063.500000	12.410214
1063.000000	12.410826
1062.500000	12.415076
1062.000000	12.416764
1061.500000	12.422491
1061.000000	12.421112
1060.500000	12.430058
1060.000000	12.421361
1059.500000	12.424453
1059.000000	12.424771
1058.500000	12.432109
1058.000000	12.430448
1057.500000	12.435189
1057.000000	12.429075
1056.500000	12.433559
1056.000000	12.433714
1055.500000	12.428734
1055.000000	12.439156
1054.500000	12.442718
1054.000000	12.433434
1053.500000	12.432200
1053.000000	12.439022
1052.500000	12.436380
1052.000000	12.438361
1051.500000	12.449202
1051.000000	12.456111
1050.500000	12.452712
1050.000000	12.453824
1049.500000	12.446867
1049.000000	12.440408
1048.500000	12.458777
1048.000000	12.459821
1047.500000	12.456978
1047.000000	12.458001
1046.500000	12.464601
1046.000000	12.467277
1045.500000	12.464212
1045.000000	12.464740
1044.500000	12.470282
1044.000000	12.464037
1043.500000	12.463251
1043.000000	12.466391
1042.500000	12.469752
1042.000000	12.472612
1041.500000	12.471014
1041.000000	12.473549
1040.500000	12.479152
1040.000000	12.484948
1039.500000	12.487669
1039.000000	12.488982
1038.500000	12.486287
1038.000000	12.489611
1037.500000	12.486372
1037.000000	12.483445
1036.500000	12.485832
1036.000000	12.496640
1035.500000	12.503634
1035.000000	12.496691
1034.500000	12.500940
1034.000000	12.498678
1033.500000	12.502836
1033.000000	12.494381
1032.500000	12.498185
1032.000000	12.499154
1031.500000	12.509299
1031.000000	12.511832
1030.500000	12.512001
1030.000000	12.518897
1029.500000	12.519521
1029.000000	12.511127
1028.500000	12.512079
1028.000000	12.502548
1027.500000	12.518762
1027.000000	12.516069
1026.500000	12.522553
1026.000000	12.521819
1025.500000	12.526965
1025.000000	12.524410
1024.500000	12.524391
1024.000000	12.526786
1023.500000	12.529013
1023.000000	12.519104
1022.500000	12.531258
1022.000000	12.543314
1021.500000	12.544028
1021.000000	12.534169
1020.500000	12.528654
1020.000000	12.543153
1019.500000	12.547490
1019.000000	12.546793
1018.500000	12.541903
1018.000000	12.538136
1017.500000	12.541986
1017.000000	12.551529
1016.500000	12.547788
1016.000000	12.544889
1015.500000	12.564788
1015.000000	12.550962
1014.500000	12.557259
1014.000000	12.552761
1013.500000	12.550108
1013.000000	12.563897
1012.500000	12.567203
1012.000000	12.571032
1011.500000	12.565908
1011.000000	12.572037
1010.500000	12.570758
1010.000000	12.570933
1009.500000	12.581820
1009.000000	12.569240
1008.500000	12.571645
1008.000000	12.583424
1007.500000	12.588124
1007.000000	12.582848
1006.500000	12.580373
1006.000000	12.587400
1005.500000	12.576413
1005.000000	12.569980
1004.500000	12.590452
1004.000000	12.595108
1003.500000	12.599090
1003.000000	12.605468
1002.500000	12.588861
1002.000000	12.600747
1001.500000	12.603347
1001.000000	12.603878
1000.500000	12.603557
1000.000000	12.609062
999.500000	12.615698
999.000000	12.613810
998.500000	12.613834
998.000000	12.622389
997.500000	12.620837
997.000000	12.611312
996.500000	12.614043
996.000000	12.615475
995.500000	12.617840
995.000000	12.613822
994.500000	12.616340
994.000000	12.624787
993.500000	12.635039
993.000000	12.629578
992.500000	12.646149
992.000000	12.639924
991.500000	12.627405
991.000000	12.642633
990.500000	12.653479
990.000000	12.644289
989.500000	12.629513
989.000000	12.646323
988.500000	12.648673
988.000000	12.644929
987.500000	12.641629
987.000000	12.649891
986.500000	12.655038
986.000000	12.666178
985.500000	12.664940
985.000000	12.661169
984.500000	12.664245
984.000000	12.651605
983.500000	12.664999
983.000000	12.667701
982.500000	12.654076
982.000000	12.663545
981.500000	12.669725
981.000000	12.690041
980.500000	12.671128
980.000000	12.668120
979.500000	12.684102
979.000000	12.698150
978.500000	12.690352
978.000000	12.688056
977.500000	12.683780
977.000000	12.693753
976.500000	12.693520
976.000000	12.692293
975.500000	12.697847
975.000000	12.703097
974.500000	12.696595
974.000000	12.700102
973.500000	12.700528
973.000000	12.693888
972.500000	12.706058
972.000000	12.699050
971.500000	12.715896
971.000000	12.703146
970.500000	12.701231
970.000000	12.705721
969.500000	12.709753
969.000000	12.710517
968.500000	12.688664
968.000000	12.718463
967.500000	12.721392
967.000000	12.703170
966.500000	12.706170
966.000000	12.730897
965.500000	12.732216
965.000000	12.725178
964.500000	12.730674
964.000000	12.742990
963.500000	12.754031
963.000000	12.742172
962.500000	12.736138
962.000000	12.752052
961.500000	12.745562
961.000000	12.748169
960.500000	12.754891
960.000000	12.763144
959.500000	12.751679
959.000000	12.767191
958.500000	12.749027
958.000000	12.736594
957.500000	12.756589
957.000000	12.743300
956.500000	12.746826
956.000000	12.766391
955.500000	12.754686
955.000000	12.755176
954.500000	12.744293
954.000000	12.759889
953.500000	12.784075
953.000000	12.780992
952.500000	12.774482
952.000000	12.776125
951.500000	12.783031
951.000000	12.788111
950.500000	12.774429
950.000000	12.786264
949.500000	12.814759
949.000000	12.770097
948.500000	12.773964
948.000000	12.811108
947.500000	12.782997
947.000000	12.769611
946.500000	12.799765
946.000000	12.798022
945.500000	12.787166
945.000000	12.802037
944.500000	12.804761
944.000000	12.810254
943.500000	12.826552
943.000000	12.842265
942.500000	12.825517
942.000000	12.806402
941.500000	12.815840
941.000000	12.838664
940.500000	12.850296
940.000000	12.839941
939.500000	12.826415
939.000000	12.827105
938.500000	12.844694
938.000000	12.833107
937.500000	12.850574
937.000000	12.847180
936.500000	12.827525
936.000000	12.831949
935.500000	12.862266
935.000000	12.860234
934.500000	12.854213
934.000000	12.867161
933.500000	12.825784
933.000000	12.840926
932.500000	12.852355
932.000000	12.873681
931.500000	12.873682
931.000000	12.884979
930.500000	12.874732
930.000000	12.868951
929.500000	12.871817
929.000000	12.881147
928.500000	12.912252
928.000000	12.895859
927.500000	12.877537
927.000000	12.888548
926.500000	12.879055
926.000000	12.878007
925.500000	12.895157
925.000000	12.907477
924.500000	12.907094
924.000000	12.889568
923.500000	12.901433
923.000000	12.908088
922.500000	12.904365
922.000000	12.936955
921.500000	12.914491
921.000000	12.893459
920.500000	12.886554
920.000000	12.910047
919.500000	12.961270
919.000000	12.956015
918.500000	12.916405
918.000000	12.888899
917.500000	12.900317
917.000000	12.926992
916.500000	12.919141
916.000000	12.909434
915.500000	12.963394
915.000000	12.948484
914.500000	12.919673
914.000000	12.937735
913.500000	12.924756
913.000000	12.941168
912.500000	12.928800
912.000000	12.927262
911.500000	12.953851
911.000000	12.946449
910.500000	12.938430
910.000000	12.954409
909.500000	12.988530
909.000000	12.968242
908.500000	12.965216
908.000000	12.995406
907.500000	12.983961
907.000000	12.980770
906.500000	12.982901
906.000000	12.965741
905.500000	12.986046
905.000000	13.000163
904.500000	12.971693
904.000000	12.956469
903.500000	13.016408
903.000000	13.014940
902.500000	12.977735
902.000000	13.017264
901.500000	13.024975
901.000000	13.023998
900.500000	13.009247
900.000000	12.991906
899.500000	12.986710
899.000000	13.018242
898.500000	13.039071
898.000000	13.020090
897.500000	13.024937
897.000000	13.027591
896.500000	13.042209
896.000000	13.022563
895.500000	13.018556
895.000000	13.043796
894.500000	13.013596
894.000000	13.029600
893.500000	12.989439
893.000000	12.983414
892.500000	13.083037
892.000000	12.996383
891.500000	13.055632
891.000000	13.030672
890.500000	13.042716
890.000000	13.027547
889.500000	13.115611
889.000000	13.119072
888.500000	13.118378
888.000000	13.120137
887.500000	13.125321
887.000000	13.126355
886.500000	13.131433
886.000000	13.138664
885.500000	13.137072
885.000000	13.136542
884.500000	13.144532
884.000000	13.139369
883.500000	13.137792
883.000000	13.152644
882.500000	13.148910
882.000000	13.148465
881.500000	13.152319
881.000000	13.148708
880.500000	13.159202
880.000000	13.159601
879.500000	13.161452
879.000000	13.158715
878.500000	13.172836
878.000000	13.167199
877.500000	13.167137
877.000000	13.166311
876.500000	13.174550
876.000000	13.179326
875.500000	13.178526
875.000000	13.184957
874.500000	13.181753
874.000000	13.189123
873.500000	13.187084
873.000000	13.190651
872.500000	13.194807
872.000000	13.188940
871.500000	13.191897
871.000000	13.199799
870.500000	13.196262
870.000000	13.201967
869.500000	13.204193
869.000000	13.207236
868.500000	13.208616
868.000000	13.215910
867.500000	13.210052
867.000000	13.219332
866.500000	13.223555
866.000000	13.215783
865.500000	13.224070
865.000000	13.228162
864.500000	13.227418
864.000000	13.236602
863.500000	13.230959
863.000000	13.235679
862.500000	13.234584
862.000000	13.238667
861.500000	13.240301
861.000000	13.244466
860.500000	13.241477
860.000000	13.249807
859.500000	13.242145
859.000000	13.250899
858.500000	13.256713
858.000000	13.255112
857.500000	13.259009
857.000000	13.257836
856.500000	13.262831
856.000000	13.265289
855.500000	13.264828
855.000000	13.265299
854.500000	13.278142
854.000000	13.277662
853.500000	13.277414
853.000000	13.277829
852.500000	13.285588
852.000000	13.285680
851.500000	13.285285
851.000000	13.293960
850.500000	13.297805
850.000000	13.294330
849.500000	13.293347
849.000000	13.295513
848.500000	13.296066
848.000000	13.304060
847.500000	13.302387
847.000000	13.304451
846.500000	13.306868
846.000000	13.311532
845.500000	13.320322
845.000000	13.317461
844.500000	13.323241
844.000000	13.321284
843.500000	13.324525
843.000000	13.327658
842.500000	13.325718
842.000000	13.329256
841.500000	13.335020
841.000000	13.328676
840.500000	13.339764
840.000000	13.342507
839.500000	13.343117
839.000000	13.344043
838.500000	13.350782
838.000000	13.351217
837.500000	13.350602
837.000000	13.356094
836.500000	13.357955
836.000000	13.358880
835.500000	13.363959
835.000000	13.374683
834.500000	13.374482
834.000000	13.368486
833.500000	13.367824
833.000000	13.377999
832.500000	13.379988
832.000000	13.388505
831.500000	13.386644
831.000000	13.381374
830.500000	13.390284
830.000000	13.392875
829.500000	13.400409
829.000000	13.400785
828.500000	13.403351
828.000000	13.401783
827.500000	13.405003
827.000000	13.409485
826.500000	13.407448
826.000000	13.410276
825.500000	13.405316
825.000000	13.413810
824.500000	13.421251
824.000000	13.420542
823.500000	13.421115
823.000000	13.424257
822.500000	13.431118
822.000000	13.432892
821.500000	13.429913
821.000000	13.431846
820.500000	13.435795
820.000000	13.435992
819.500000	13.445615
819.000000	13.449807
818.500000	13.456425
818.000000	13.452823
817.500000	13.450828
817.000000	13.454374
816.500000	13.460765
816.000000	13.467197
815.500000	13.467487
815.000000	13.469485
814.500000	13.467896
814.000000	13.469418
813.500000	13.478610
813.000000	13.477979
812.500000	13.481649
812.000000	13.485891
811.500000	13.484190
811.000000	13.490715
810.500000	13.493591
810.000000	13.491281
809.500000	13.490661
809.000000	13.497364
808.500000	13.501248
808.000000	13.499902
807.500000	13.507569
807.000000	13.511547
806.500000	13.507846
806.000000	13.510587
805.500000	13.510183
805.000000	13.513449
804.500000	13.520675
804.000000	13.529266
803.500000	13.533971
803.000000	13.531650
802.500000	13.532700
802.000000	13.533494
801.500000	13.533696
801.000000	13.537515
800.500000	13.542610
800.000000	13.542219
