PE UV       SUBTECH     SPECTRUM    ASCII       PEDS        4.00        
   -1
midIR_WSi_2_URA_T.Sample.asc
19/06/28
11:58:12.00
19/06/28
11:58:12.00
Adriana Lita

800.000000
1
Lambda 1050
1050N9050501
PerkinElmer UV WinLab 6.0.4.0738 / 1.61.00 Lambda 900

0
0
3350/20 889.8/5
0
0
UV/VIS
0
1
1
CommonBeamDepol,RBeamAtt,SBeamAtt,universal reflectance
0
0
0
0
Program
Program
3350/20 889.8/5
3350/0.32 889.8/0.2
3350/0.32 889.8/0.2
0
1
 
 
 
0
 
889.8
319.2
889.8
Front
13
on
S:100 R:100
 
0
0
0
 
0
 
 
 
0
 
 
0
0
45.0
5.00
5.00
False
True
202N9070701
 
0
0


0
0
#HDR
-1
-1
#GR
nm
%T
1.0
0.0
2000.000000
-0.500000
2401
8
66.973012
60.788583
#DATA
2000.000000	66.916514
1999.500000	66.848203
1999.000000	66.893879
1998.500000	66.973012
1998.000000	66.882535
1997.500000	66.816888
1997.000000	66.835915
1996.500000	66.855461
1996.000000	66.799633
1995.500000	66.842633
1995.000000	66.861272
1994.500000	66.832599
1994.000000	66.875021
1993.500000	66.911936
1993.000000	66.892332
1992.500000	66.853442
1992.000000	66.877629
1991.500000	66.818047
1991.000000	66.862359
1990.500000	66.873484
1990.000000	66.844543
1989.500000	66.909748
1989.000000	66.819708
1988.500000	66.810270
1988.000000	66.826169
1987.500000	66.808557
1987.000000	66.797289
1986.500000	66.859042
1986.000000	66.830896
1985.500000	66.828395
1985.000000	66.780010
1984.500000	66.781527
1984.000000	66.839893
1983.500000	66.896805
1983.000000	66.893375
1982.500000	66.837510
1982.000000	66.805294
1981.500000	66.801444
1981.000000	66.744181
1980.500000	66.703437
1980.000000	66.783527
1979.500000	66.801223
1979.000000	66.820274
1978.500000	66.777173
1978.000000	66.856986
1977.500000	66.761887
1977.000000	66.854223
1976.500000	66.728234
1976.000000	66.770282
1975.500000	66.769026
1975.000000	66.806007
1974.500000	66.792826
1974.000000	66.754309
1973.500000	66.756896
1973.000000	66.784392
1972.500000	66.737935
1972.000000	66.711025
1971.500000	66.744597
1971.000000	66.807720
1970.500000	66.791108
1970.000000	66.781731
1969.500000	66.710705
1969.000000	66.774365
1968.500000	66.783685
1968.000000	66.738429
1967.500000	66.614753
1967.000000	66.759881
1966.500000	66.760039
1966.000000	66.845980
1965.500000	66.751945
1965.000000	66.798059
1964.500000	66.702057
1964.000000	66.801295
1963.500000	66.791852
1963.000000	66.795645
1962.500000	66.741112
1962.000000	66.764663
1961.500000	66.687632
1961.000000	66.729615
1960.500000	66.729381
1960.000000	66.745194
1959.500000	66.752968
1959.000000	66.731820
1958.500000	66.757207
1958.000000	66.841862
1957.500000	66.705166
1957.000000	66.726672
1956.500000	66.756448
1956.000000	66.670065
1955.500000	66.728976
1955.000000	66.748175
1954.500000	66.815387
1954.000000	66.819468
1953.500000	66.709398
1953.000000	66.749111
1952.500000	66.751342
1952.000000	66.710322
1951.500000	66.786341
1951.000000	66.747333
1950.500000	66.718681
1950.000000	66.716524
1949.500000	66.743156
1949.000000	66.713916
1948.500000	66.676714
1948.000000	66.692983
1947.500000	66.762603
1947.000000	66.801270
1946.500000	66.736144
1946.000000	66.706314
1945.500000	66.651864
1945.000000	66.767244
1944.500000	66.575670
1944.000000	66.716302
1943.500000	66.798744
1943.000000	66.707841
1942.500000	66.715333
1942.000000	66.736193
1941.500000	66.791009
1941.000000	66.786652
1940.500000	66.752614
1940.000000	66.674449
1939.500000	66.746819
1939.000000	66.803679
1938.500000	66.750819
1938.000000	66.671742
1937.500000	66.728554
1937.000000	66.803678
1936.500000	66.777068
1936.000000	66.690873
1935.500000	66.616976
1935.000000	66.745325
1934.500000	66.758967
1934.000000	66.708585
1933.500000	66.679296
1933.000000	66.719024
1932.500000	66.600934
1932.000000	66.600678
1931.500000	66.588523
1931.000000	66.596485
1930.500000	66.806730
1930.000000	66.699165
1929.500000	66.670014
1929.000000	66.714469
1928.500000	66.722072
1928.000000	66.676343
1927.500000	66.706314
1927.000000	66.757054
1926.500000	66.801475
1926.000000	66.682487
1925.500000	66.707458
1925.000000	66.823025
1924.500000	66.657037
1924.000000	66.641630
1923.500000	66.918020
1923.000000	66.906206
1922.500000	66.663521
1922.000000	66.705678
1921.500000	66.795481
1921.000000	66.672735
1920.500000	66.620491
1920.000000	66.695964
1919.500000	66.806510
1919.000000	66.752722
1918.500000	66.659267
1918.000000	66.794078
1917.500000	66.774519
1917.000000	66.653287
1916.500000	66.648559
1916.000000	66.661791
1915.500000	66.677373
1915.000000	66.745451
1914.500000	66.844581
1914.000000	66.811127
1913.500000	66.771131
1913.000000	66.754326
1912.500000	66.788243
1912.000000	66.631180
1911.500000	66.762067
1911.000000	66.766686
1910.500000	66.642108
1910.000000	66.666704
1909.500000	66.604190
1909.000000	66.738376
1908.500000	66.663867
1908.000000	66.651898
1907.500000	66.697089
1907.000000	66.776609
1906.500000	66.806379
1906.000000	66.765077
1905.500000	66.636289
1905.000000	66.686019
1904.500000	66.784424
1904.000000	66.784553
1903.500000	66.730736
1903.000000	66.693427
1902.500000	66.710015
1902.000000	66.806435
1901.500000	66.653596
1901.000000	66.706974
1900.500000	66.761595
1900.000000	66.622956
1899.500000	66.550577
1899.000000	66.769894
1898.500000	66.737120
1898.000000	66.651988
1897.500000	66.659185
1897.000000	66.876451
1896.500000	66.754782
1896.000000	66.679959
1895.500000	66.774724
1895.000000	66.756106
1894.500000	66.712056
1894.000000	66.764589
1893.500000	66.705113
1893.000000	66.694850
1892.500000	66.624123
1892.000000	66.671461
1891.500000	66.777366
1891.000000	66.747498
1890.500000	66.792475
1890.000000	66.735973
1889.500000	66.766662
1889.000000	66.772100
1888.500000	66.673693
1888.000000	66.670581
1887.500000	66.733555
1887.000000	66.721015
1886.500000	66.858607
1886.000000	66.819454
1885.500000	66.671404
1885.000000	66.636974
1884.500000	66.662490
1884.000000	66.632934
1883.500000	66.734543
1883.000000	66.804923
1882.500000	66.713641
1882.000000	66.724149
1881.500000	66.704167
1881.000000	66.686440
1880.500000	66.687787
1880.000000	66.647254
1879.500000	66.601869
1879.000000	66.800022
1878.500000	66.732560
1878.000000	66.753668
1877.500000	66.626294
1877.000000	66.603793
1876.500000	66.750890
1876.000000	66.650181
1875.500000	66.700022
1875.000000	66.739099
1874.500000	66.855747
1874.000000	66.810865
1873.500000	66.760834
1873.000000	66.648420
1872.500000	66.615448
1872.000000	66.610675
1871.500000	66.679942
1871.000000	66.730225
1870.500000	66.740551
1870.000000	66.825872
1869.500000	66.824852
1869.000000	66.687573
1868.500000	66.685529
1868.000000	66.640295
1867.500000	66.699721
1867.000000	66.713537
1866.500000	66.788741
1866.000000	66.707577
1865.500000	66.736829
1865.000000	66.751924
1864.500000	66.737530
1864.000000	66.646882
1863.500000	66.647937
1863.000000	66.692513
1862.500000	66.740254
1862.000000	66.791740
1861.500000	66.671370
1861.000000	66.723289
1860.500000	66.786675
1860.000000	66.698468
1859.500000	66.634580
1859.000000	66.725685
1858.500000	66.767496
1858.000000	66.697714
1857.500000	66.716455
1857.000000	66.599953
1856.500000	66.678930
1856.000000	66.699601
1855.500000	66.699985
1855.000000	66.748004
1854.500000	66.755675
1854.000000	66.779310
1853.500000	66.701475
1853.000000	66.737337
1852.500000	66.735388
1852.000000	66.727844
1851.500000	66.728997
1851.000000	66.593288
1850.500000	66.646243
1850.000000	66.751493
1849.500000	66.789364
1849.000000	66.679821
1848.500000	66.678650
1848.000000	66.682470
1847.500000	66.675425
1847.000000	66.751421
1846.500000	66.728762
1846.000000	66.638482
1845.500000	66.672158
1845.000000	66.656900
1844.500000	66.631716
1844.000000	66.717986
1843.500000	66.644174
1843.000000	66.685598
1842.500000	66.790945
1842.000000	66.720934
1841.500000	66.703151
1841.000000	66.625259
1840.500000	66.600028
1840.000000	66.658499
1839.500000	66.687732
1839.000000	66.669009
1838.500000	66.728770
1838.000000	66.708180
1837.500000	66.581358
1837.000000	66.680176
1836.500000	66.714940
1836.000000	66.595299
1835.500000	66.685679
1835.000000	66.557130
1834.500000	66.531468
1834.000000	66.644735
1833.500000	66.650786
1833.000000	66.645214
1832.500000	66.664232
1832.000000	66.634834
1831.500000	66.642774
1831.000000	66.555087
1830.500000	66.650504
1830.000000	66.647690
1829.500000	66.624323
1829.000000	66.651533
1828.500000	66.641180
1828.000000	66.601144
1827.500000	66.598788
1827.000000	66.589536
1826.500000	66.566543
1826.000000	66.571941
1825.500000	66.567904
1825.000000	66.529404
1824.500000	66.588329
1824.000000	66.527488
1823.500000	66.545059
1823.000000	66.519555
1822.500000	66.496610
1822.000000	66.586195
1821.500000	66.585775
1821.000000	66.490495
1820.500000	66.571801
1820.000000	66.624167
1819.500000	66.554175
1819.000000	66.505288
1818.500000	66.580420
1818.000000	66.543334
1817.500000	66.589848
1817.000000	66.536317
1816.500000	66.552235
1816.000000	66.566333
1815.500000	66.541163
1815.000000	66.522209
1814.500000	66.545398
1814.000000	66.594109
1813.500000	66.532832
1813.000000	66.515783
1812.500000	66.479155
1812.000000	66.512210
1811.500000	66.489991
1811.000000	66.550159
1810.500000	66.490400
1810.000000	66.514408
1809.500000	66.566232
1809.000000	66.590331
1808.500000	66.538551
1808.000000	66.467130
1807.500000	66.467169
1807.000000	66.536734
1806.500000	66.476944
1806.000000	66.494291
1805.500000	66.474424
1805.000000	66.480952
1804.500000	66.497623
1804.000000	66.480396
1803.500000	66.497269
1803.000000	66.536240
1802.500000	66.516623
1802.000000	66.436175
1801.500000	66.513034
1801.000000	66.479250
1800.500000	66.454517
1800.000000	66.390993
1799.500000	66.411582
1799.000000	66.423820
1798.500000	66.458166
1798.000000	66.483734
1797.500000	66.431959
1797.000000	66.425750
1796.500000	66.416939
1796.000000	66.462196
1795.500000	66.431414
1795.000000	66.402906
1794.500000	66.439434
1794.000000	66.477065
1793.500000	66.454332
1793.000000	66.450783
1792.500000	66.486489
1792.000000	66.410423
1791.500000	66.353363
1791.000000	66.380703
1790.500000	66.440050
1790.000000	66.457220
1789.500000	66.453300
1789.000000	66.350790
1788.500000	66.411096
1788.000000	66.361835
1787.500000	66.449622
1787.000000	66.397820
1786.500000	66.450044
1786.000000	66.410049
1785.500000	66.477425
1785.000000	66.442573
1784.500000	66.392938
1784.000000	66.405450
1783.500000	66.405089
1783.000000	66.413712
1782.500000	66.434594
1782.000000	66.441782
1781.500000	66.383867
1781.000000	66.384485
1780.500000	66.460271
1780.000000	66.450762
1779.500000	66.410404
1779.000000	66.413248
1778.500000	66.468653
1778.000000	66.372133
1777.500000	66.436712
1777.000000	66.376012
1776.500000	66.357015
1776.000000	66.388966
1775.500000	66.409952
1775.000000	66.359367
1774.500000	66.387025
1774.000000	66.431161
1773.500000	66.362185
1773.000000	66.384671
1772.500000	66.396609
1772.000000	66.354811
1771.500000	66.295708
1771.000000	66.318534
1770.500000	66.381837
1770.000000	66.403307
1769.500000	66.363474
1769.000000	66.348041
1768.500000	66.358500
1768.000000	66.354327
1767.500000	66.390332
1767.000000	66.374910
1766.500000	66.397396
1766.000000	66.386572
1765.500000	66.369245
1765.000000	66.408441
1764.500000	66.349382
1764.000000	66.378433
1763.500000	66.375230
1763.000000	66.316043
1762.500000	66.361727
1762.000000	66.323400
1761.500000	66.338742
1761.000000	66.341362
1760.500000	66.347394
1760.000000	66.292359
1759.500000	66.314072
1759.000000	66.309630
1758.500000	66.352723
1758.000000	66.413697
1757.500000	66.406205
1757.000000	66.423048
1756.500000	66.346061
1756.000000	66.343505
1755.500000	66.358066
1755.000000	66.354943
1754.500000	66.371856
1754.000000	66.272184
1753.500000	66.362271
1753.000000	66.289370
1752.500000	66.358865
1752.000000	66.334816
1751.500000	66.303442
1751.000000	66.307412
1750.500000	66.321756
1750.000000	66.313009
1749.500000	66.295434
1749.000000	66.277260
1748.500000	66.331975
1748.000000	66.333329
1747.500000	66.321935
1747.000000	66.355809
1746.500000	66.321425
1746.000000	66.331455
1745.500000	66.343016
1745.000000	66.357700
1744.500000	66.333433
1744.000000	66.370582
1743.500000	66.281116
1743.000000	66.324350
1742.500000	66.389296
1742.000000	66.309080
1741.500000	66.346952
1741.000000	66.357138
1740.500000	66.300565
1740.000000	66.265059
1739.500000	66.325646
1739.000000	66.330719
1738.500000	66.318766
1738.000000	66.310757
1737.500000	66.311417
1737.000000	66.335166
1736.500000	66.339708
1736.000000	66.326847
1735.500000	66.328455
1735.000000	66.375792
1734.500000	66.329877
1734.000000	66.397080
1733.500000	66.351502
1733.000000	66.333895
1732.500000	66.364105
1732.000000	66.377711
1731.500000	66.274781
1731.000000	66.337593
1730.500000	66.329058
1730.000000	66.346320
1729.500000	66.331032
1729.000000	66.396718
1728.500000	66.342350
1728.000000	66.307885
1727.500000	66.333635
1727.000000	66.313058
1726.500000	66.363067
1726.000000	66.409351
1725.500000	66.381384
1725.000000	66.336994
1724.500000	66.336252
1724.000000	66.336166
1723.500000	66.380586
1723.000000	66.364293
1722.500000	66.327673
1722.000000	66.393886
1721.500000	66.384637
1721.000000	66.367541
1720.500000	66.397882
1720.000000	66.387732
1719.500000	66.397032
1719.000000	66.409084
1718.500000	66.382659
1718.000000	66.340677
1717.500000	66.373699
1717.000000	66.395607
1716.500000	66.351557
1716.000000	66.346660
1715.500000	66.323962
1715.000000	66.365999
1714.500000	66.400843
1714.000000	66.362783
1713.500000	66.315986
1713.000000	66.336375
1712.500000	66.354282
1712.000000	66.289758
1711.500000	66.294577
1711.000000	66.315076
1710.500000	66.316693
1710.000000	66.348362
1709.500000	66.274941
1709.000000	66.266059
1708.500000	66.253256
1708.000000	66.320893
1707.500000	66.313217
1707.000000	66.325226
1706.500000	66.303672
1706.000000	66.330834
1705.500000	66.370925
1705.000000	66.318606
1704.500000	66.280168
1704.000000	66.316654
1703.500000	66.329479
1703.000000	66.323544
1702.500000	66.305808
1702.000000	66.326815
1701.500000	66.296457
1701.000000	66.315302
1700.500000	66.285417
1700.000000	66.265844
1699.500000	66.289399
1699.000000	66.293652
1698.500000	66.263194
1698.000000	66.324646
1697.500000	66.330269
1697.000000	66.318055
1696.500000	66.324213
1696.000000	66.284317
1695.500000	66.246067
1695.000000	66.267264
1694.500000	66.293117
1694.000000	66.315194
1693.500000	66.329564
1693.000000	66.355341
1692.500000	66.284909
1692.000000	66.264486
1691.500000	66.277813
1691.000000	66.322039
1690.500000	66.338116
1690.000000	66.307832
1689.500000	66.289801
1689.000000	66.308728
1688.500000	66.239682
1688.000000	66.251082
1687.500000	66.278842
1687.000000	66.360144
1686.500000	66.307040
1686.000000	66.312072
1685.500000	66.290876
1685.000000	66.298628
1684.500000	66.313597
1684.000000	66.304312
1683.500000	66.324174
1683.000000	66.291405
1682.500000	66.263202
1682.000000	66.247696
1681.500000	66.265948
1681.000000	66.270519
1680.500000	66.267022
1680.000000	66.266104
1679.500000	66.239565
1679.000000	66.196463
1678.500000	66.260909
1678.000000	66.291712
1677.500000	66.262046
1677.000000	66.265585
1676.500000	66.262804
1676.000000	66.187482
1675.500000	66.267323
1675.000000	66.236788
1674.500000	66.219440
1674.000000	66.299663
1673.500000	66.275695
1673.000000	66.250371
1672.500000	66.220347
1672.000000	66.221518
1671.500000	66.168544
1671.000000	66.228801
1670.500000	66.255699
1670.000000	66.224284
1669.500000	66.213046
1669.000000	66.232643
1668.500000	66.232632
1668.000000	66.217801
1667.500000	66.213726
1667.000000	66.177974
1666.500000	66.169644
1666.000000	66.187781
1665.500000	66.147287
1665.000000	66.190845
1664.500000	66.189446
1664.000000	66.133787
1663.500000	66.119979
1663.000000	66.185991
1662.500000	66.174368
1662.000000	66.193548
1661.500000	66.163972
1661.000000	66.114105
1660.500000	66.116351
1660.000000	66.163108
1659.500000	66.140337
1659.000000	66.132923
1658.500000	66.137331
1658.000000	66.148901
1657.500000	66.147289
1657.000000	66.123578
1656.500000	66.101963
1656.000000	66.109169
1655.500000	66.180673
1655.000000	66.133370
1654.500000	66.115508
1654.000000	66.126668
1653.500000	66.124718
1653.000000	66.157629
1652.500000	66.162235
1652.000000	66.179875
1651.500000	66.138112
1651.000000	66.136952
1650.500000	66.097137
1650.000000	66.086933
1649.500000	66.086007
1649.000000	66.044918
1648.500000	66.049886
1648.000000	66.047254
1647.500000	66.078641
1647.000000	66.092419
1646.500000	66.080665
1646.000000	66.104803
1645.500000	66.136832
1645.000000	66.117489
1644.500000	66.056603
1644.000000	66.077204
1643.500000	66.077416
1643.000000	66.086998
1642.500000	66.066375
1642.000000	66.069624
1641.500000	66.066419
1641.000000	66.088594
1640.500000	66.062314
1640.000000	66.064462
1639.500000	66.036702
1639.000000	66.084565
1638.500000	66.074145
1638.000000	66.066614
1637.500000	66.036939
1637.000000	66.028520
1636.500000	66.007118
1636.000000	66.010311
1635.500000	66.023627
1635.000000	65.982107
1634.500000	65.989466
1634.000000	66.041572
1633.500000	66.030837
1633.000000	66.032296
1632.500000	66.059891
1632.000000	66.020169
1631.500000	66.080035
1631.000000	65.992106
1630.500000	65.978578
1630.000000	66.012753
1629.500000	66.057623
1629.000000	66.031964
1628.500000	66.044953
1628.000000	66.011578
1627.500000	66.013615
1627.000000	66.001116
1626.500000	66.037490
1626.000000	65.981156
1625.500000	66.005983
1625.000000	66.004116
1624.500000	66.000851
1624.000000	66.013412
1623.500000	65.983551
1623.000000	65.997340
1622.500000	66.011828
1622.000000	65.994872
1621.500000	66.030637
1621.000000	66.007569
1620.500000	65.969489
1620.000000	65.972198
1619.500000	66.002054
1619.000000	65.993063
1618.500000	65.969051
1618.000000	66.011887
1617.500000	66.051876
1617.000000	65.997804
1616.500000	66.001138
1616.000000	65.982703
1615.500000	65.992247
1615.000000	66.001637
1614.500000	66.023288
1614.000000	65.999400
1613.500000	65.985868
1613.000000	65.963802
1612.500000	65.989239
1612.000000	65.996672
1611.500000	65.993991
1611.000000	66.009046
1610.500000	65.935330
1610.000000	65.944589
1609.500000	66.003645
1609.000000	65.969027
1608.500000	65.997976
1608.000000	65.968779
1607.500000	66.001705
1607.000000	65.989871
1606.500000	65.965703
1606.000000	65.978556
1605.500000	65.919619
1605.000000	65.956326
1604.500000	65.981466
1604.000000	65.989822
1603.500000	65.966024
1603.000000	65.934588
1602.500000	65.933733
1602.000000	65.943210
1601.500000	65.964945
1601.000000	65.976073
1600.500000	65.929647
1600.000000	65.953618
1599.500000	65.944568
1599.000000	65.964768
1598.500000	65.991059
1598.000000	65.973306
1597.500000	65.936726
1597.000000	65.946890
1596.500000	65.948108
1596.000000	65.935842
1595.500000	65.961256
1595.000000	65.920181
1594.500000	65.908818
1594.000000	65.952078
1593.500000	65.956364
1593.000000	65.953653
1592.500000	65.931933
1592.000000	65.928398
1591.500000	65.960061
1591.000000	65.972217
1590.500000	65.978057
1590.000000	65.969503
1589.500000	65.970511
1589.000000	65.950540
1588.500000	65.975259
1588.000000	65.924693
1587.500000	65.941236
1587.000000	65.929084
1586.500000	65.968282
1586.000000	65.943275
1585.500000	65.919978
1585.000000	65.944784
1584.500000	65.917511
1584.000000	65.921948
1583.500000	65.924963
1583.000000	65.952364
1582.500000	65.961584
1582.000000	65.934692
1581.500000	65.933600
1581.000000	65.940040
1580.500000	65.892877
1580.000000	65.905313
1579.500000	65.970586
1579.000000	65.983532
1578.500000	65.938502
1578.000000	65.904849
1577.500000	65.971094
1577.000000	65.976921
1576.500000	65.914698
1576.000000	65.973478
1575.500000	65.951078
1575.000000	65.895386
1574.500000	65.929596
1574.000000	65.931524
1573.500000	65.895828
1573.000000	65.924761
1572.500000	65.967018
1572.000000	65.902713
1571.500000	65.941117
1571.000000	65.984496
1570.500000	65.950893
1570.000000	65.911166
1569.500000	65.893908
1569.000000	65.902232
1568.500000	65.911592
1568.000000	65.917060
1567.500000	65.932830
1567.000000	65.942113
1566.500000	65.935614
1566.000000	65.954722
1565.500000	65.954528
1565.000000	65.918309
1564.500000	65.919077
1564.000000	65.904332
1563.500000	65.933615
1563.000000	65.902794
1562.500000	65.926676
1562.000000	65.949694
1561.500000	65.910117
1561.000000	65.909962
1560.500000	65.917322
1560.000000	65.888489
1559.500000	65.884042
1559.000000	65.891055
1558.500000	65.860881
1558.000000	65.895154
1557.500000	65.933850
1557.000000	65.895515
1556.500000	65.903254
1556.000000	65.866903
1555.500000	65.844785
1555.000000	65.888834
1554.500000	65.915851
1554.000000	65.937471
1553.500000	65.896223
1553.000000	65.872396
1552.500000	65.888007
1552.000000	65.868860
1551.500000	65.887028
1551.000000	65.843915
1550.500000	65.856148
1550.000000	65.886518
1549.500000	65.862644
1549.000000	65.895684
1548.500000	65.871740
1548.000000	65.857643
1547.500000	65.874442
1547.000000	65.864443
1546.500000	65.874175
1546.000000	65.844397
1545.500000	65.840529
1545.000000	65.854279
1544.500000	65.858299
1544.000000	65.823474
1543.500000	65.799642
1543.000000	65.799319
1542.500000	65.880947
1542.000000	65.836174
1541.500000	65.819341
1541.000000	65.798530
1540.500000	65.831415
1540.000000	65.807439
1539.500000	65.833688
1539.000000	65.808863
1538.500000	65.828418
1538.000000	65.813668
1537.500000	65.801089
1537.000000	65.819629
1536.500000	65.797774
1536.000000	65.792781
1535.500000	65.801719
1535.000000	65.806002
1534.500000	65.820487
1534.000000	65.805939
1533.500000	65.795617
1533.000000	65.789732
1532.500000	65.768981
1532.000000	65.777011
1531.500000	65.788848
1531.000000	65.757376
1530.500000	65.767148
1530.000000	65.797992
1529.500000	65.788669
1529.000000	65.745686
1528.500000	65.785591
1528.000000	65.753644
1527.500000	65.770274
1527.000000	65.798598
1526.500000	65.748585
1526.000000	65.743461
1525.500000	65.765502
1525.000000	65.780583
1524.500000	65.754873
1524.000000	65.775829
1523.500000	65.769756
1523.000000	65.749595
1522.500000	65.743524
1522.000000	65.757625
1521.500000	65.738727
1521.000000	65.705177
1520.500000	65.745629
1520.000000	65.725126
1519.500000	65.725140
1519.000000	65.681695
1518.500000	65.715315
1518.000000	65.733306
1517.500000	65.691167
1517.000000	65.742247
1516.500000	65.711601
1516.000000	65.684285
1515.500000	65.687009
1515.000000	65.702346
1514.500000	65.700916
1514.000000	65.677362
1513.500000	65.698230
1513.000000	65.728777
1512.500000	65.686440
1512.000000	65.660276
1511.500000	65.666414
1511.000000	65.684058
1510.500000	65.698430
1510.000000	65.728153
1509.500000	65.703788
1509.000000	65.699894
1508.500000	65.660715
1508.000000	65.640407
1507.500000	65.635669
1507.000000	65.705217
1506.500000	65.624119
1506.000000	65.658213
1505.500000	65.659051
1505.000000	65.689674
1504.500000	65.651705
1504.000000	65.632692
1503.500000	65.654563
1503.000000	65.657422
1502.500000	65.649547
1502.000000	65.640331
1501.500000	65.630806
1501.000000	65.638395
1500.500000	65.628537
1500.000000	65.611573
1499.500000	65.663098
1499.000000	65.637189
1498.500000	65.629779
1498.000000	65.666184
1497.500000	65.652726
1497.000000	65.650413
1496.500000	65.640320
1496.000000	65.630248
1495.500000	65.617788
1495.000000	65.614033
1494.500000	65.597209
1494.000000	65.622135
1493.500000	65.630633
1493.000000	65.635899
1492.500000	65.611372
1492.000000	65.585151
1491.500000	65.579067
1491.000000	65.599217
1490.500000	65.584831
1490.000000	65.596792
1489.500000	65.607937
1489.000000	65.610722
1488.500000	65.584625
1488.000000	65.565375
1487.500000	65.595467
1487.000000	65.612026
1486.500000	65.635731
1486.000000	65.604110
1485.500000	65.579644
1485.000000	65.570395
1484.500000	65.582204
1484.000000	65.558611
1483.500000	65.555916
1483.000000	65.569541
1482.500000	65.572512
1482.000000	65.600359
1481.500000	65.626286
1481.000000	65.605649
1480.500000	65.569677
1480.000000	65.531565
1479.500000	65.557698
1479.000000	65.560281
1478.500000	65.568689
1478.000000	65.561318
1477.500000	65.555444
1477.000000	65.514864
1476.500000	65.543902
1476.000000	65.514886
1475.500000	65.531415
1475.000000	65.494755
1474.500000	65.499874
1474.000000	65.513238
1473.500000	65.566408
1473.000000	65.520089
1472.500000	65.541361
1472.000000	65.528845
1471.500000	65.515165
1471.000000	65.511649
1470.500000	65.524940
1470.000000	65.507628
1469.500000	65.531136
1469.000000	65.512683
1468.500000	65.488799
1468.000000	65.509580
1467.500000	65.519614
1467.000000	65.525821
1466.500000	65.539686
1466.000000	65.519545
1465.500000	65.518578
1465.000000	65.483444
1464.500000	65.497258
1464.000000	65.492648
1463.500000	65.518213
1463.000000	65.484028
1462.500000	65.508741
1462.000000	65.478549
1461.500000	65.520760
1461.000000	65.494783
1460.500000	65.508209
1460.000000	65.517512
1459.500000	65.498882
1459.000000	65.498921
1458.500000	65.464465
1458.000000	65.455466
1457.500000	65.487844
1457.000000	65.494014
1456.500000	65.493148
1456.000000	65.494491
1455.500000	65.499607
1455.000000	65.498585
1454.500000	65.535586
1454.000000	65.512066
1453.500000	65.499008
1453.000000	65.539251
1452.500000	65.495515
1452.000000	65.509038
1451.500000	65.497032
1451.000000	65.440326
1450.500000	65.470876
1450.000000	65.505012
1449.500000	65.485123
1449.000000	65.502222
1448.500000	65.500441
1448.000000	65.499092
1447.500000	65.496757
1447.000000	65.520050
1446.500000	65.528437
1446.000000	65.503278
1445.500000	65.507516
1445.000000	65.514405
1444.500000	65.497576
1444.000000	65.488280
1443.500000	65.468387
1443.000000	65.495478
1442.500000	65.526574
1442.000000	65.508894
1441.500000	65.482252
1441.000000	65.513502
1440.500000	65.505651
1440.000000	65.488483
1439.500000	65.471216
1439.000000	65.471135
1438.500000	65.495691
1438.000000	65.528757
1437.500000	65.527780
1437.000000	65.483693
1436.500000	65.494848
1436.000000	65.497110
1435.500000	65.499763
1435.000000	65.499732
1434.500000	65.496465
1434.000000	65.482263
1433.500000	65.463375
1433.000000	65.484596
1432.500000	65.479031
1432.000000	65.487791
1431.500000	65.468920
1431.000000	65.453201
1430.500000	65.464085
1430.000000	65.454549
1429.500000	65.486668
1429.000000	65.446306
1428.500000	65.475628
1428.000000	65.486262
1427.500000	65.484025
1427.000000	65.503326
1426.500000	65.471968
1426.000000	65.469601
1425.500000	65.470298
1425.000000	65.460525
1424.500000	65.477281
1424.000000	65.453235
1423.500000	65.463026
1423.000000	65.466908
1422.500000	65.447670
1422.000000	65.439076
1421.500000	65.469938
1421.000000	65.465326
1420.500000	65.468205
1420.000000	65.419468
1419.500000	65.432156
1419.000000	65.446472
1418.500000	65.447920
1418.000000	65.430030
1417.500000	65.470971
1417.000000	65.461917
1416.500000	65.446720
1416.000000	65.421478
1415.500000	65.399279
1415.000000	65.436211
1414.500000	65.442691
1414.000000	65.447011
1413.500000	65.442832
1413.000000	65.411894
1412.500000	65.404193
1412.000000	65.412618
1411.500000	65.397909
1411.000000	65.393380
1410.500000	65.377368
1410.000000	65.379118
1409.500000	65.408837
1409.000000	65.458925
1408.500000	65.401191
1408.000000	65.370166
1407.500000	65.387176
1407.000000	65.327490
1406.500000	65.399353
1406.000000	65.388885
1405.500000	65.369374
1405.000000	65.365215
1404.500000	65.346755
1404.000000	65.330611
1403.500000	65.330263
1403.000000	65.319641
1402.500000	65.316777
1402.000000	65.321312
1401.500000	65.319279
1401.000000	65.310858
1400.500000	65.306557
1400.000000	65.296545
1399.500000	65.300489
1399.000000	65.308526
1398.500000	65.301608
1398.000000	65.298068
1397.500000	65.306578
1397.000000	65.285594
1396.500000	65.279571
1396.000000	65.245909
1395.500000	65.242716
1395.000000	65.280637
1394.500000	65.238924
1394.000000	65.216077
1393.500000	65.241529
1393.000000	65.242913
1392.500000	65.234378
1392.000000	65.267245
1391.500000	65.242273
1391.000000	65.230868
1390.500000	65.252810
1390.000000	65.221882
1389.500000	65.189756
1389.000000	65.199443
1388.500000	65.175109
1388.000000	65.198567
1387.500000	65.219355
1387.000000	65.217051
1386.500000	65.218181
1386.000000	65.214217
1385.500000	65.175142
1385.000000	65.208486
1384.500000	65.221366
1384.000000	65.207108
1383.500000	65.194703
1383.000000	65.187005
1382.500000	65.176334
1382.000000	65.182806
1381.500000	65.179258
1381.000000	65.178620
1380.500000	65.159963
1380.000000	65.173043
1379.500000	65.182355
1379.000000	65.185441
1378.500000	65.193025
1378.000000	65.196909
1377.500000	65.176215
1377.000000	65.167219
1376.500000	65.151642
1376.000000	65.166597
1375.500000	65.154656
1375.000000	65.186366
1374.500000	65.195312
1374.000000	65.223465
1373.500000	65.167770
1373.000000	65.156070
1372.500000	65.180783
1372.000000	65.162952
1371.500000	65.182962
1371.000000	65.173210
1370.500000	65.154844
1370.000000	65.191288
1369.500000	65.185600
1369.000000	65.164916
1368.500000	65.157961
1368.000000	65.174485
1367.500000	65.184841
1367.000000	65.168496
1366.500000	65.164877
1366.000000	65.172543
1365.500000	65.173588
1365.000000	65.187389
1364.500000	65.149908
1364.000000	65.150567
1363.500000	65.148958
1363.000000	65.154884
1362.500000	65.139852
1362.000000	65.145598
1361.500000	65.169421
1361.000000	65.170255
1360.500000	65.179579
1360.000000	65.126359
1359.500000	65.113850
1359.000000	65.137683
1358.500000	65.102109
1358.000000	65.112568
1357.500000	65.119917
1357.000000	65.106688
1356.500000	65.125207
1356.000000	65.133216
1355.500000	65.086918
1355.000000	65.123646
1354.500000	65.161796
1354.000000	65.144720
1353.500000	65.135227
1353.000000	65.123604
1352.500000	65.112452
1352.000000	65.141161
1351.500000	65.136940
1351.000000	65.111547
1350.500000	65.092956
1350.000000	65.116517
1349.500000	65.126866
1349.000000	65.108286
1348.500000	65.129928
1348.000000	65.131341
1347.500000	65.101598
1347.000000	65.145146
1346.500000	65.128900
1346.000000	65.098026
1345.500000	65.094313
1345.000000	65.112332
1344.500000	65.121601
1344.000000	65.133916
1343.500000	65.121355
1343.000000	65.113773
1342.500000	65.108680
1342.000000	65.105823
1341.500000	65.102975
1341.000000	65.098747
1340.500000	65.073141
1340.000000	65.126732
1339.500000	65.117676
1339.000000	65.130583
1338.500000	65.104326
1338.000000	65.107919
1337.500000	65.104437
1337.000000	65.080347
1336.500000	65.089855
1336.000000	65.104290
1335.500000	65.107324
1335.000000	65.104784
1334.500000	65.084708
1334.000000	65.099685
1333.500000	65.120158
1333.000000	65.098217
1332.500000	65.087002
1332.000000	65.097752
1331.500000	65.101436
1331.000000	65.082232
1330.500000	65.080835
1330.000000	65.093514
1329.500000	65.084102
1329.000000	65.059385
1328.500000	65.054482
1328.000000	65.029713
1327.500000	65.044666
1327.000000	65.050850
1326.500000	65.043236
1326.000000	65.044480
1325.500000	65.053124
1325.000000	65.061220
1324.500000	65.040101
1324.000000	65.034010
1323.500000	65.028392
1323.000000	65.017893
1322.500000	65.028634
1322.000000	65.006700
1321.500000	65.018064
1321.000000	65.020636
1320.500000	64.987264
1320.000000	64.970521
1319.500000	64.988180
1319.000000	64.991120
1318.500000	65.006139
1318.000000	64.964177
1317.500000	64.997079
1317.000000	64.972853
1316.500000	64.988499
1316.000000	64.984739
1315.500000	64.969181
1315.000000	64.977236
1314.500000	64.977693
1314.000000	64.986231
1313.500000	64.974401
1313.000000	64.962089
1312.500000	64.964533
1312.000000	64.974192
1311.500000	64.971746
1311.000000	64.954033
1310.500000	64.940415
1310.000000	64.947306
1309.500000	64.945491
1309.000000	64.945347
1308.500000	64.956208
1308.000000	64.955490
1307.500000	64.929733
1307.000000	64.918133
1306.500000	64.912482
1306.000000	64.913849
1305.500000	64.923264
1305.000000	64.931661
1304.500000	64.924484
1304.000000	64.916736
1303.500000	64.907603
1303.000000	64.905098
1302.500000	64.902900
1302.000000	64.888362
1301.500000	64.896909
1301.000000	64.900677
1300.500000	64.883973
1300.000000	64.886393
1299.500000	64.903366
1299.000000	64.895908
1298.500000	64.905694
1298.000000	64.898535
1297.500000	64.874471
1297.000000	64.861293
1296.500000	64.878361
1296.000000	64.861542
1295.500000	64.876767
1295.000000	64.860683
1294.500000	64.873443
1294.000000	64.852625
1293.500000	64.890163
1293.000000	64.853323
1292.500000	64.856456
1292.000000	64.859275
1291.500000	64.851322
1291.000000	64.842350
1290.500000	64.837536
1290.000000	64.852727
1289.500000	64.837517
1289.000000	64.850656
1288.500000	64.852123
1288.000000	64.821443
1287.500000	64.816681
1287.000000	64.824581
1286.500000	64.814979
1286.000000	64.801594
1285.500000	64.812924
1285.000000	64.823272
1284.500000	64.801851
1284.000000	64.836016
1283.500000	64.796274
1283.000000	64.817801
1282.500000	64.794766
1282.000000	64.804350
1281.500000	64.830468
1281.000000	64.809872
1280.500000	64.772906
1280.000000	64.753274
1279.500000	64.794580
1279.000000	64.804894
1278.500000	64.794758
1278.000000	64.785989
1277.500000	64.772062
1277.000000	64.781666
1276.500000	64.783912
1276.000000	64.788831
1275.500000	64.769877
1275.000000	64.775158
1274.500000	64.757687
1274.000000	64.746543
1273.500000	64.738422
1273.000000	64.775046
1272.500000	64.794515
1272.000000	64.750531
1271.500000	64.761655
1271.000000	64.760934
1270.500000	64.734595
1270.000000	64.741525
1269.500000	64.745874
1269.000000	64.734900
1268.500000	64.747517
1268.000000	64.753171
1267.500000	64.735357
1267.000000	64.747945
1266.500000	64.732780
1266.000000	64.716927
1265.500000	64.739046
1265.000000	64.752736
1264.500000	64.744601
1264.000000	64.730144
1263.500000	64.744459
1263.000000	64.737157
1262.500000	64.733504
1262.000000	64.717526
1261.500000	64.759221
1261.000000	64.739500
1260.500000	64.728180
1260.000000	64.729051
1259.500000	64.717517
1259.000000	64.715540
1258.500000	64.741927
1258.000000	64.754306
1257.500000	64.747995
1257.000000	64.720460
1256.500000	64.711420
1256.000000	64.707966
1255.500000	64.698114
1255.000000	64.708220
1254.500000	64.740850
1254.000000	64.730612
1253.500000	64.719161
1253.000000	64.711912
1252.500000	64.722099
1252.000000	64.705766
1251.500000	64.716858
1251.000000	64.718004
1250.500000	64.715104
1250.000000	64.709944
1249.500000	64.702054
1249.000000	64.755998
1248.500000	64.717120
1248.000000	64.708564
1247.500000	64.703896
1247.000000	64.715116
1246.500000	64.720103
1246.000000	64.713940
1245.500000	64.712125
1245.000000	64.699670
1244.500000	64.685802
1244.000000	64.670292
1243.500000	64.670995
1243.000000	64.679499
1242.500000	64.680112
1242.000000	64.685858
1241.500000	64.679253
1241.000000	64.650644
1240.500000	64.660625
1240.000000	64.647846
1239.500000	64.645774
1239.000000	64.631277
1238.500000	64.647857
1238.000000	64.645943
1237.500000	64.658276
1237.000000	64.642534
1236.500000	64.640968
1236.000000	64.666283
1235.500000	64.666626
1235.000000	64.621015
1234.500000	64.594659
1234.000000	64.617481
1233.500000	64.621609
1233.000000	64.607336
1232.500000	64.605339
1232.000000	64.586229
1231.500000	64.600037
1231.000000	64.574996
1230.500000	64.574557
1230.000000	64.577357
1229.500000	64.563233
1229.000000	64.575725
1228.500000	64.559244
1228.000000	64.583084
1227.500000	64.548470
1227.000000	64.579536
1226.500000	64.580015
1226.000000	64.560396
1225.500000	64.557932
1225.000000	64.554170
1224.500000	64.522719
1224.000000	64.529390
1223.500000	64.549064
1223.000000	64.521013
1222.500000	64.514573
1222.000000	64.505841
1221.500000	64.514477
1221.000000	64.496333
1220.500000	64.483867
1220.000000	64.490916
1219.500000	64.490742
1219.000000	64.481809
1218.500000	64.476002
1218.000000	64.489332
1217.500000	64.476989
1217.000000	64.450619
1216.500000	64.457878
1216.000000	64.443827
1215.500000	64.428546
1215.000000	64.438568
1214.500000	64.420610
1214.000000	64.433119
1213.500000	64.459368
1213.000000	64.466359
1212.500000	64.447299
1212.000000	64.443236
1211.500000	64.449548
1211.000000	64.421195
1210.500000	64.432270
1210.000000	64.433321
1209.500000	64.397444
1209.000000	64.394333
1208.500000	64.404915
1208.000000	64.416608
1207.500000	64.414163
1207.000000	64.413231
1206.500000	64.423211
1206.000000	64.399436
1205.500000	64.414455
1205.000000	64.404700
1204.500000	64.395836
1204.000000	64.388787
1203.500000	64.381434
1203.000000	64.365330
1202.500000	64.371431
1202.000000	64.383796
1201.500000	64.385654
1201.000000	64.385212
1200.500000	64.368903
1200.000000	64.379154
1199.500000	64.392398
1199.000000	64.375947
1198.500000	64.376944
1198.000000	64.350396
1197.500000	64.370070
1197.000000	64.367344
1196.500000	64.358455
1196.000000	64.358229
1195.500000	64.376216
1195.000000	64.379589
1194.500000	64.339176
1194.000000	64.344619
1193.500000	64.360981
1193.000000	64.331665
1192.500000	64.331028
1192.000000	64.353245
1191.500000	64.339330
1191.000000	64.342116
1190.500000	64.354989
1190.000000	64.357167
1189.500000	64.373237
1189.000000	64.359695
1188.500000	64.348292
1188.000000	64.357296
1187.500000	64.380541
1187.000000	64.332356
1186.500000	64.336742
1186.000000	64.334720
1185.500000	64.343741
1185.000000	64.348821
1184.500000	64.343914
1184.000000	64.344205
1183.500000	64.340251
1183.000000	64.359175
1182.500000	64.351764
1182.000000	64.343354
1181.500000	64.324178
1181.000000	64.314508
1180.500000	64.310816
1180.000000	64.324844
1179.500000	64.337444
1179.000000	64.310881
1178.500000	64.301541
1178.000000	64.339674
1177.500000	64.315153
1177.000000	64.288715
1176.500000	64.298535
1176.000000	64.295869
1175.500000	64.312531
1175.000000	64.313593
1174.500000	64.299105
1174.000000	64.297445
1173.500000	64.316531
1173.000000	64.306079
1172.500000	64.334186
1172.000000	64.280646
1171.500000	64.280737
1171.000000	64.305917
1170.500000	64.311520
1170.000000	64.265002
1169.500000	64.275696
1169.000000	64.278257
1168.500000	64.278534
1168.000000	64.277837
1167.500000	64.280421
1167.000000	64.279051
1166.500000	64.279212
1166.000000	64.291554
1165.500000	64.266121
1165.000000	64.258220
1164.500000	64.275563
1164.000000	64.236353
1163.500000	64.238009
1163.000000	64.234625
1162.500000	64.233680
1162.000000	64.247424
1161.500000	64.208877
1161.000000	64.212151
1160.500000	64.179708
1160.000000	64.219526
1159.500000	64.214029
1159.000000	64.191571
1158.500000	64.208795
1158.000000	64.224186
1157.500000	64.189079
1157.000000	64.165811
1156.500000	64.149486
1156.000000	64.165714
1155.500000	64.165260
1155.000000	64.153672
1154.500000	64.161622
1154.000000	64.159110
1153.500000	64.148834
1153.000000	64.141041
1152.500000	64.152995
1152.000000	64.137236
1151.500000	64.142626
1151.000000	64.135642
1150.500000	64.110733
1150.000000	64.108757
1149.500000	64.120230
1149.000000	64.127719
1148.500000	64.095015
1148.000000	64.124575
1147.500000	64.115197
1147.000000	64.110771
1146.500000	64.116545
1146.000000	64.074223
1145.500000	64.097302
1145.000000	64.099078
1144.500000	64.086309
1144.000000	64.072853
1143.500000	64.084469
1143.000000	64.094283
1142.500000	64.080794
1142.000000	64.061390
1141.500000	64.071142
1141.000000	64.067957
1140.500000	64.069007
1140.000000	64.043112
1139.500000	64.048042
1139.000000	64.056539
1138.500000	64.054515
1138.000000	64.056916
1137.500000	64.039009
1137.000000	64.061519
1136.500000	64.032824
1136.000000	64.042284
1135.500000	64.031345
1135.000000	64.023413
1134.500000	64.017407
1134.000000	64.038493
1133.500000	64.040348
1133.000000	64.014537
1132.500000	64.017696
1132.000000	64.027214
1131.500000	63.992024
1131.000000	64.005477
1130.500000	64.023925
1130.000000	64.026109
1129.500000	63.998580
1129.000000	63.991410
1128.500000	64.019266
1128.000000	63.989079
1127.500000	63.973464
1127.000000	63.992767
1126.500000	63.986557
1126.000000	63.996538
1125.500000	63.944111
1125.000000	63.955252
1124.500000	63.995021
1124.000000	63.953104
1123.500000	63.948737
1123.000000	63.965716
1122.500000	63.957387
1122.000000	63.938206
1121.500000	63.945087
1121.000000	63.945846
1120.500000	63.931337
1120.000000	63.921650
1119.500000	63.919153
1119.000000	63.917163
1118.500000	63.920966
1118.000000	63.931506
1117.500000	63.948182
1117.000000	63.906055
1116.500000	63.888245
1116.000000	63.906264
1115.500000	63.917316
1115.000000	63.930795
1114.500000	63.913003
1114.000000	63.893596
1113.500000	63.922652
1113.000000	63.900753
1112.500000	63.878981
1112.000000	63.911303
1111.500000	63.901176
1111.000000	63.903283
1110.500000	63.873114
1110.000000	63.881451
1109.500000	63.897646
1109.000000	63.892019
1108.500000	63.868513
1108.000000	63.871041
1107.500000	63.877274
1107.000000	63.864211
1106.500000	63.880591
1106.000000	63.845905
1105.500000	63.854963
1105.000000	63.851709
1104.500000	63.847106
1104.000000	63.839448
1103.500000	63.823067
1103.000000	63.846979
1102.500000	63.829045
1102.000000	63.813486
1101.500000	63.790584
1101.000000	63.805425
1100.500000	63.831105
1100.000000	63.811261
1099.500000	63.799712
1099.000000	63.813831
1098.500000	63.812018
1098.000000	63.801032
1097.500000	63.802971
1097.000000	63.802441
1096.500000	63.801638
1096.000000	63.774594
1095.500000	63.774172
1095.000000	63.771934
1094.500000	63.767503
1094.000000	63.783630
1093.500000	63.763824
1093.000000	63.762484
1092.500000	63.760836
1092.000000	63.723438
1091.500000	63.762787
1091.000000	63.775856
1090.500000	63.727420
1090.000000	63.733990
1089.500000	63.738739
1089.000000	63.739838
1088.500000	63.754167
1088.000000	63.752737
1087.500000	63.741498
1087.000000	63.723776
1086.500000	63.728357
1086.000000	63.719897
1085.500000	63.725836
1085.000000	63.720283
1084.500000	63.710903
1084.000000	63.708528
1083.500000	63.690324
1083.000000	63.702181
1082.500000	63.712055
1082.000000	63.682686
1081.500000	63.667522
1081.000000	63.674999
1080.500000	63.677056
1080.000000	63.690908
1079.500000	63.673409
1079.000000	63.692960
1078.500000	63.698029
1078.000000	63.670533
1077.500000	63.654348
1077.000000	63.646121
1076.500000	63.648316
1076.000000	63.644302
1075.500000	63.620841
1075.000000	63.621290
1074.500000	63.640377
1074.000000	63.633501
1073.500000	63.631317
1073.000000	63.606388
1072.500000	63.575627
1072.000000	63.602441
1071.500000	63.613450
1071.000000	63.567634
1070.500000	63.573562
1070.000000	63.597166
1069.500000	63.553906
1069.000000	63.549746
1068.500000	63.563192
1068.000000	63.552962
1067.500000	63.538663
1067.000000	63.560176
1066.500000	63.571736
1066.000000	63.557046
1065.500000	63.560927
1065.000000	63.562467
1064.500000	63.545003
1064.000000	63.560132
1063.500000	63.528667
1063.000000	63.497310
1062.500000	63.473189
1062.000000	63.510031
1061.500000	63.516084
1061.000000	63.551088
1060.500000	63.556888
1060.000000	63.517540
1059.500000	63.481191
1059.000000	63.488838
1058.500000	63.508846
1058.000000	63.493221
1057.500000	63.516747
1057.000000	63.498830
1056.500000	63.488700
1056.000000	63.495730
1055.500000	63.487792
1055.000000	63.493961
1054.500000	63.487832
1054.000000	63.475322
1053.500000	63.458740
1053.000000	63.451257
1052.500000	63.461157
1052.000000	63.459587
1051.500000	63.433994
1051.000000	63.441172
1050.500000	63.454684
1050.000000	63.431484
1049.500000	63.455436
1049.000000	63.460405
1048.500000	63.432274
1048.000000	63.423001
1047.500000	63.430870
1047.000000	63.426868
1046.500000	63.404333
1046.000000	63.403755
1045.500000	63.424398
1045.000000	63.437812
1044.500000	63.394093
1044.000000	63.423029
1043.500000	63.420991
1043.000000	63.422870
1042.500000	63.412118
1042.000000	63.393640
1041.500000	63.385663
1041.000000	63.383529
1040.500000	63.372252
1040.000000	63.396460
1039.500000	63.376218
1039.000000	63.380562
1038.500000	63.381795
1038.000000	63.359766
1037.500000	63.371407
1037.000000	63.420255
1036.500000	63.345097
1036.000000	63.313885
1035.500000	63.350416
1035.000000	63.341408
1034.500000	63.296895
1034.000000	63.327991
1033.500000	63.358233
1033.000000	63.346336
1032.500000	63.336114
1032.000000	63.324747
1031.500000	63.324195
1031.000000	63.318673
1030.500000	63.318788
1030.000000	63.304044
1029.500000	63.296584
1029.000000	63.323725
1028.500000	63.330194
1028.000000	63.277751
1027.500000	63.272520
1027.000000	63.266867
1026.500000	63.256637
1026.000000	63.264654
1025.500000	63.258380
1025.000000	63.274975
1024.500000	63.230768
1024.000000	63.215417
1023.500000	63.256908
1023.000000	63.209202
1022.500000	63.222071
1022.000000	63.229911
1021.500000	63.214104
1021.000000	63.207228
1020.500000	63.206300
1020.000000	63.189708
1019.500000	63.184453
1019.000000	63.216850
1018.500000	63.211939
1018.000000	63.206736
1017.500000	63.201401
1017.000000	63.174897
1016.500000	63.171050
1016.000000	63.160325
1015.500000	63.141104
1015.000000	63.193527
1014.500000	63.195619
1014.000000	63.174547
1013.500000	63.137910
1013.000000	63.186434
1012.500000	63.133303
1012.000000	63.117320
1011.500000	63.098775
1011.000000	63.095408
1010.500000	63.111652
1010.000000	63.089090
1009.500000	63.092412
1009.000000	63.132365
1008.500000	63.138211
1008.000000	63.114872
1007.500000	63.086575
1007.000000	63.104961
1006.500000	63.125733
1006.000000	63.121496
1005.500000	63.098149
1005.000000	63.117444
1004.500000	63.087000
1004.000000	63.130630
1003.500000	63.112301
1003.000000	63.124269
1002.500000	63.057703
1002.000000	63.097690
1001.500000	63.112391
1001.000000	63.098214
1000.500000	63.076996
1000.000000	63.034582
999.500000	63.037646
999.000000	63.032085
998.500000	63.058142
998.000000	63.076668
997.500000	63.068660
997.000000	63.028825
996.500000	63.025311
996.000000	63.039678
995.500000	63.036597
995.000000	63.021614
994.500000	63.022318
994.000000	63.044299
993.500000	63.014549
993.000000	62.984313
992.500000	62.992143
992.000000	63.001818
991.500000	62.981483
991.000000	62.978426
990.500000	63.025882
990.000000	63.012578
989.500000	62.966754
989.000000	62.975393
988.500000	62.983801
988.000000	62.979849
987.500000	62.962602
987.000000	62.926364
986.500000	62.944970
986.000000	62.952736
985.500000	62.935744
985.000000	62.913359
984.500000	62.982375
984.000000	62.930031
983.500000	62.904662
983.000000	62.918493
982.500000	62.927462
982.000000	62.946901
981.500000	62.981677
981.000000	62.873096
980.500000	62.889625
980.000000	62.939999
979.500000	62.865128
979.000000	62.867830
978.500000	62.931184
978.000000	62.920835
977.500000	62.890517
977.000000	62.861025
976.500000	62.877598
976.000000	62.909395
975.500000	62.891871
975.000000	62.847013
974.500000	62.835816
974.000000	62.854128
973.500000	62.804211
973.000000	62.828177
972.500000	62.837637
972.000000	62.820029
971.500000	62.828696
971.000000	62.860905
970.500000	62.815836
970.000000	62.759816
969.500000	62.765070
969.000000	62.824723
968.500000	62.890929
968.000000	62.818476
967.500000	62.803660
967.000000	62.829797
966.500000	62.830770
966.000000	62.783213
965.500000	62.708208
965.000000	62.737447
964.500000	62.773246
964.000000	62.755792
963.500000	62.762979
963.000000	62.768204
962.500000	62.757819
962.000000	62.757899
961.500000	62.741760
961.000000	62.749725
960.500000	62.685284
960.000000	62.682391
959.500000	62.693612
959.000000	62.677755
958.500000	62.697236
958.000000	62.690004
957.500000	62.664547
957.000000	62.727219
956.500000	62.653722
956.000000	62.717944
955.500000	62.626772
955.000000	62.621531
954.500000	62.641216
954.000000	62.634632
953.500000	62.674396
953.000000	62.668118
952.500000	62.635943
952.000000	62.578555
951.500000	62.602848
951.000000	62.598092
950.500000	62.584061
950.000000	62.594046
949.500000	62.635802
949.000000	62.572383
948.500000	62.535594
948.000000	62.544254
947.500000	62.549133
947.000000	62.686172
946.500000	62.576298
946.000000	62.582314
945.500000	62.616677
945.000000	62.500313
944.500000	62.581655
944.000000	62.551633
943.500000	62.591258
943.000000	62.626934
942.500000	62.643716
942.000000	62.567740
941.500000	62.587506
941.000000	62.596690
940.500000	62.517472
940.000000	62.535374
939.500000	62.562917
939.000000	62.522641
938.500000	62.384005
938.000000	62.524527
937.500000	62.499182
937.000000	62.552980
936.500000	62.537084
936.000000	62.503258
935.500000	62.500757
935.000000	62.505046
934.500000	62.554486
934.000000	62.549335
933.500000	62.551762
933.000000	62.508250
932.500000	62.502132
932.000000	62.499953
931.500000	62.458132
931.000000	62.450595
930.500000	62.437825
930.000000	62.517257
929.500000	62.415452
929.000000	62.371626
928.500000	62.316141
928.000000	62.421514
927.500000	62.403230
927.000000	62.321691
926.500000	62.419379
926.000000	62.457306
925.500000	62.325516
925.000000	62.439030
924.500000	62.253720
924.000000	62.295272
923.500000	62.233613
923.000000	62.243503
922.500000	62.298516
922.000000	62.336393
921.500000	62.385593
921.000000	62.483937
920.500000	62.459659
920.000000	62.241567
919.500000	62.186283
919.000000	62.255897
918.500000	62.284538
918.000000	62.287388
917.500000	62.304985
917.000000	62.279808
916.500000	62.281642
916.000000	62.209301
915.500000	62.275844
915.000000	62.396938
914.500000	62.247316
914.000000	62.170598
913.500000	62.226182
913.000000	62.238234
912.500000	62.298005
912.000000	62.256113
911.500000	62.154764
911.000000	62.210276
910.500000	62.408983
910.000000	62.339545
909.500000	62.216623
909.000000	62.243630
908.500000	62.171535
908.000000	62.207025
907.500000	62.208335
907.000000	62.086079
906.500000	62.237509
906.000000	62.135367
905.500000	62.242836
905.000000	62.183959
904.500000	62.252284
904.000000	62.031499
903.500000	62.078373
903.000000	62.161748
902.500000	62.037823
902.000000	61.957000
901.500000	62.164165
901.000000	62.159111
900.500000	61.979983
900.000000	62.194343
899.500000	62.097250
899.000000	62.074112
898.500000	61.985566
898.000000	62.071061
897.500000	62.058026
897.000000	62.142812
896.500000	62.178149
896.000000	62.050313
895.500000	62.058353
895.000000	62.095281
894.500000	62.254263
894.000000	62.136365
893.500000	62.020219
893.000000	62.144212
892.500000	61.769252
892.000000	62.041663
891.500000	61.941958
891.000000	62.081373
890.500000	61.844913
890.000000	62.043173
889.500000	62.014852
889.000000	61.996031
888.500000	62.065805
888.000000	62.059597
887.500000	62.017696
887.000000	62.057926
886.500000	62.001677
886.000000	62.017452
885.500000	62.018091
885.000000	62.033649
884.500000	61.993403
884.000000	62.003219
883.500000	61.930533
883.000000	61.980345
882.500000	61.935488
882.000000	61.919279
881.500000	61.939257
881.000000	61.951088
880.500000	61.968826
880.000000	61.906762
879.500000	61.946122
879.000000	61.918564
878.500000	61.925193
878.000000	61.895225
877.500000	61.867678
877.000000	61.889780
876.500000	61.880001
876.000000	61.850653
875.500000	61.900403
875.000000	61.831759
874.500000	61.845860
874.000000	61.844707
873.500000	61.812687
873.000000	61.850037
872.500000	61.829500
872.000000	61.830308
871.500000	61.783494
871.000000	61.791445
870.500000	61.829812
870.000000	61.801935
869.500000	61.803495
869.000000	61.755625
868.500000	61.785057
868.000000	61.826397
867.500000	61.755747
867.000000	61.750831
866.500000	61.765612
866.000000	61.750341
865.500000	61.687113
865.000000	61.703397
864.500000	61.689044
864.000000	61.710541
863.500000	61.709755
863.000000	61.717283
862.500000	61.725967
862.000000	61.646324
861.500000	61.680708
861.000000	61.692511
860.500000	61.684881
860.000000	61.648727
859.500000	61.623641
859.000000	61.646931
858.500000	61.635971
858.000000	61.638749
857.500000	61.652258
857.000000	61.622440
856.500000	61.582342
856.000000	61.579429
855.500000	61.585598
855.000000	61.592887
854.500000	61.562961
854.000000	61.548708
853.500000	61.539372
853.000000	61.572785
852.500000	61.599753
852.000000	61.537978
851.500000	61.561950
851.000000	61.516886
850.500000	61.439373
850.000000	61.484838
849.500000	61.495876
849.000000	61.503689
848.500000	61.542126
848.000000	61.503329
847.500000	61.479577
847.000000	61.481974
846.500000	61.451161
846.000000	61.469050
845.500000	61.403634
845.000000	61.403632
844.500000	61.432717
844.000000	61.414760
843.500000	61.452555
843.000000	61.452721
842.500000	61.423604
842.000000	61.430925
841.500000	61.391719
841.000000	61.404552
840.500000	61.366157
840.000000	61.371198
839.500000	61.398355
839.000000	61.360914
838.500000	61.331601
838.000000	61.351242
837.500000	61.374587
837.000000	61.356749
836.500000	61.350362
836.000000	61.293253
835.500000	61.280216
835.000000	61.281905
834.500000	61.300090
834.000000	61.308183
833.500000	61.285430
833.000000	61.280901
832.500000	61.286125
832.000000	61.281673
831.500000	61.265271
831.000000	61.266597
830.500000	61.285746
830.000000	61.237193
829.500000	61.230947
829.000000	61.258851
828.500000	61.243195
828.000000	61.226580
827.500000	61.208188
827.000000	61.215799
826.500000	61.196073
826.000000	61.172801
825.500000	61.175219
825.000000	61.179271
824.500000	61.184713
824.000000	61.137118
823.500000	61.172563
823.000000	61.131311
822.500000	61.130184
822.000000	61.104175
821.500000	61.113793
821.000000	61.118624
820.500000	61.077022
820.000000	61.102143
819.500000	61.113956
819.000000	61.112581
818.500000	61.085123
818.000000	61.043295
817.500000	61.046507
817.000000	61.040750
816.500000	61.030780
816.000000	61.012221
815.500000	61.028583
815.000000	61.040157
814.500000	61.006413
814.000000	61.017567
813.500000	61.035216
813.000000	60.998186
812.500000	60.976347
812.000000	60.985228
811.500000	60.991199
811.000000	60.978351
810.500000	60.954867
810.000000	60.956375
809.500000	60.983262
809.000000	60.982682
808.500000	60.962084
808.000000	60.953490
807.500000	60.974787
807.000000	60.966633
806.500000	60.940656
806.000000	60.928209
805.500000	60.956138
805.000000	60.991639
804.500000	60.960459
804.000000	60.920064
803.500000	60.911054
803.000000	60.899522
802.500000	60.868336
802.000000	60.845060
801.500000	60.840942
801.000000	60.856012
800.500000	60.823718
800.000000	60.788583
